id,age_group,version,trial,block,transitions,stake,s1,choice,s2,points,score,rt1,rt2,timeout1,timeout2,timeout,stimulus_left,stimulus_right,destination1,destination2,destination3,destination4,reward1,reward2,timestamp_stake,timestamp_stakeDisappear,timestamp_spaceship,timestamp_spaceshipResponse,timestamp_monster,timestamp_monsterResponse,timestamp_reward,timestamp_end,practice,trial_index,time_elapsed
12-002,YA,A,1,1,stable,1,2,4,2,2,2,12220,3910,0,0,0,4,3,1,2,1,2,9,2,0,0,1.6499E+12,1.6499E+12,1.6499E+12,1.6499E+12,1.6499E+12,1.65E+12,1,0,834590
12-002,YA,A,2,1,stable,1,1,1,1,7,9,15741,895,0,0,0,2,1,1,2,1,2,7,1,0,0,1.6499E+12,1.6499E+12,1.6499E+12,1.6499E+12,1.6499E+12,1.65E+12,1,1,856656
12-002,YA,A,3,1,stable,1,1,1,1,4,13,2410,5293,0,0,0,1,2,1,2,1,2,4,1,0,0,1.6499E+12,1.6499E+12,1.6499E+12,1.6499E+12,1.6499E+12,1.65E+12,1,2,869184
12-002,YA,A,4,1,stable,1,2,4,2,2,15,2833,525,0,0,0,3,4,1,2,1,2,0,2,0,0,1.6499E+12,1.6499E+12,1.6499E+12,1.6499E+12,1.6499E+12,1.65E+12,1,3,876967
12-002,YA,A,5,1,stable,1,1,1,1,1,16,3282,61,0,0,0,2,1,1,2,1,2,1,1,0,0,1.6499E+12,1.6499E+12,1.6499E+12,1.6499E+12,1.6499E+12,1.65E+12,1,4,884534
12-002,YA,A,6,1,stable,1,2,3,1,4,20,1676,2632,0,0,0,4,3,1,2,1,2,4,1,0,0,1.6499E+12,1.6499E+12,1.6499E+12,1.6499E+12,1.6499E+12,1.65E+12,1,5,893669
12-002,YA,A,7,1,stable,1,1,1,1,6,26,1275,2309,0,0,0,2,1,1,2,1,2,6,2,0,0,1.6499E+12,1.6499E+12,1.6499E+12,1.6499E+12,1.6499E+12,1.65E+12,1,6,902484
12-002,YA,A,8,1,stable,1,1,1,1,8,34,1738,784,0,0,0,1,2,1,2,1,2,8,2,0,0,1.6499E+12,1.6499E+12,1.6499E+12,1.6499E+12,1.6499E+12,1.65E+12,1,7,910641
12-002,YA,A,9,1,stable,1,2,3,1,8,42,1016,470,0,0,0,4,3,1,2,1,2,8,2,0,0,1.6499E+12,1.6499E+12,1.6499E+12,1.6499E+12,1.6499E+12,1.65E+12,1,8,917760
12-002,YA,A,10,1,stable,1,2,4,2,3,45,1249,710,0,0,0,4,3,1,2,1,2,4,3,0,0,1.6499E+12,1.6499E+12,1.6499E+12,1.6499E+12,1.6499E+12,1.65E+12,1,9,924343
12-002,YA,A,11,1,stable,1,1,1,1,5,50,948,412,0,0,0,2,1,1,2,1,2,5,2,0,0,1.6499E+12,1.6499E+12,1.6499E+12,1.6499E+12,1.6499E+12,1.65E+12,1,10,930730
12-002,YA,A,12,1,stable,1,1,1,1,8,58,694,583,0,0,0,2,1,1,2,1,2,8,3,0,0,1.6499E+12,1.6499E+12,1.6499E+12,1.6499E+12,1.6499E+12,1.65E+12,1,11,937640
12-002,YA,A,13,1,stable,1,2,3,1,6,64,977,222,0,0,0,3,4,1,2,1,2,6,1,0,0,1.6499E+12,1.6499E+12,1.6499E+12,1.6499E+12,1.6499E+12,1.65E+12,1,12,944073
12-002,YA,A,14,1,stable,1,2,3,1,7,71,685,191,0,0,0,4,3,1,2,1,2,7,2,0,0,1.6499E+12,1.6499E+12,1.6499E+12,1.6499E+12,1.6499E+12,1.65E+12,1,13,950381
12-002,YA,A,15,1,stable,1,2,3,1,6,77,893,190,0,0,0,3,4,1,2,1,2,6,5,0,0,1.6499E+12,1.6499E+12,1.6499E+12,1.6499E+12,1.6499E+12,1.65E+12,1,14,956692
12-002,YA,A,16,1,stable,1,2,3,1,8,85,749,237,0,0,0,4,3,1,2,1,2,8,4,0,0,1.6499E+12,1.6499E+12,1.6499E+12,1.6499E+12,1.6499E+12,1.65E+12,1,15,963311
12-002,YA,A,17,1,stable,1,1,1,1,9,94,697,126,0,0,0,2,1,1,2,1,2,9,5,0,0,1.6499E+12,1.6499E+12,1.6499E+12,1.6499E+12,1.6499E+12,1.65E+12,1,16,969971
12-002,YA,A,18,1,stable,1,2,3,1,7,101,486,88,0,0,0,3,4,1,2,1,2,7,7,0,0,1.6499E+12,1.6499E+12,1.6499E+12,1.6499E+12,1.6499E+12,1.65E+12,1,17,975973
12-002,YA,A,19,1,stable,1,2,3,1,6,107,525,54,0,0,0,3,4,1,2,1,2,6,6,0,0,1.6499E+12,1.6499E+12,1.6499E+12,1.6499E+12,1.6499E+12,1.65E+12,1,18,981781
12-002,YA,A,20,1,stable,1,2,3,1,5,112,437,182,0,0,0,3,4,1,2,1,2,5,2,0,0,1.6499E+12,1.6499E+12,1.6499E+12,1.6499E+12,1.6499E+12,1.65E+12,1,19,987426
12-002,YA,A,1,1,stable,5,2,4,2,0,0,845,-1,0,1,1,3,4,1,2,1,2,6,2,1.6499E+12,1.6499E+12,1.6499E+12,1.6499E+12,1.6499E+12,0,0,1.65E+12,0,0,1569549
12-002,YA,A,2,1,stable,5,1,2,2,6,30,1194,133,0,0,0,2,1,1,2,1,2,3,6,1.6499E+12,1.6499E+12,1.6499E+12,1.6499E+12,1.6499E+12,1.6499E+12,1.6499E+12,1.65E+12,0,1,1579772
12-002,YA,A,3,1,stable,5,1,2,2,3,45,677,358,0,0,0,1,2,1,2,1,2,2,3,1.6499E+12,1.6499E+12,1.6499E+12,1.6499E+12,1.6499E+12,1.6499E+12,1.6499E+12,1.65E+12,0,2,1589390
12-002,YA,A,4,1,stable,5,1,1,1,4,65,923,414,0,0,0,2,1,1,2,1,2,4,4,1.6499E+12,1.6499E+12,1.6499E+12,1.6499E+12,1.6499E+12,1.6499E+12,1.6499E+12,1.65E+12,0,3,1599208
12-002,YA,A,5,1,stable,1,2,3,1,4,69,625,690,0,0,0,4,3,1,2,1,2,4,3,1.6499E+12,1.6499E+12,1.6499E+12,1.6499E+12,1.6499E+12,1.6499E+12,1.6499E+12,1.65E+12,0,4,1609028
12-002,YA,A,6,1,stable,1,1,2,2,4,73,394,564,0,0,0,1,2,1,2,1,2,6,4,1.6499E+12,1.6499E+12,1.6499E+12,1.6499E+12,1.6499E+12,1.6499E+12,1.6499E+12,1.65E+12,0,5,1618850
12-002,YA,A,7,1,stable,1,1,1,1,7,80,1015,344,0,0,0,2,1,1,2,1,2,7,3,1.6499E+12,1.6499E+12,1.6499E+12,1.6499E+12,1.6499E+12,1.6499E+12,1.6499E+12,1.65E+12,0,6,1629273
12-002,YA,A,8,1,stable,5,1,1,1,5,105,798,544,0,0,0,2,1,1,2,1,2,5,3,1.6499E+12,1.6499E+12,1.6499E+12,1.6499E+12,1.6499E+12,1.6499E+12,1.6499E+12,1.65E+12,0,7,1639295
12-002,YA,A,9,1,stable,1,1,1,1,9,114,729,155,0,0,0,2,1,1,2,1,2,9,2,1.6499E+12,1.6499E+12,1.6499E+12,1.6499E+12,1.6499E+12,1.6499E+12,1.6499E+12,1.65E+12,0,8,1650125
12-002,YA,A,10,1,stable,1,1,1,1,7,121,731,453,0,0,0,1,2,1,2,1,2,7,9,1.6499E+12,1.6499E+12,1.6499E+12,1.6499E+12,1.6499E+12,1.6499E+12,1.6499E+12,1.65E+12,0,9,1660548
12-002,YA,A,11,1,stable,1,2,4,2,7,128,1123,108,0,0,0,3,4,1,2,1,2,7,7,1.6499E+12,1.6499E+12,1.6499E+12,1.6499E+12,1.6499E+12,1.6499E+12,1.6499E+12,1.65E+12,0,10,1670974
12-002,YA,A,12,1,stable,1,1,2,2,6,134,593,603,0,0,0,2,1,1,2,1,2,8,6,1.6499E+12,1.6499E+12,1.6499E+12,1.6499E+12,1.6499E+12,1.6499E+12,1.6499E+12,1.65E+12,0,11,1681198
12-002,YA,A,13,1,stable,5,2,4,2,4,154,1106,2,0,0,0,3,4,1,2,1,2,6,4,1.6499E+12,1.6499E+12,1.6499E+12,1.6499E+12,1.6499E+12,1.6499E+12,1.6499E+12,1.65E+12,0,12,1691021
12-002,YA,A,14,1,stable,1,1,1,1,7,161,1146,163,0,0,0,2,1,1,2,1,2,7,5,1.6499E+12,1.6499E+12,1.6499E+12,1.6499E+12,1.6499E+12,1.6499E+12,1.6499E+12,1.65E+12,0,13,1701449
12-002,YA,A,15,1,stable,1,2,4,2,4,165,1200,495,0,0,0,4,3,1,2,1,2,5,4,1.6499E+12,1.6499E+12,1.6499E+12,1.6499E+12,1.6499E+12,1.6499E+12,1.6499E+12,1.65E+12,0,14,1711272
12-002,YA,A,16,1,stable,1,1,-1,-1,0,165,-1,-1,1,0,1,1,2,1,2,1,2,2,6,1.6499E+12,1.6499E+12,1.6499E+12,0,0,0,0,1.65E+12,0,15,1717778
12-002,YA,A,17,1,stable,1,2,3,1,1,166,669,61,0,0,0,4,3,1,2,1,2,1,6,1.6499E+12,1.6499E+12,1.6499E+12,1.6499E+12,1.6499E+12,1.6499E+12,1.6499E+12,1.65E+12,0,16,1726996
12-002,YA,A,18,1,stable,5,1,2,2,6,196,387,173,0,0,0,2,1,1,2,1,2,1,6,1.6499E+12,1.6499E+12,1.6499E+12,1.6499E+12,1.6499E+12,1.6499E+12,1.6499E+12,1.65E+12,0,17,1737217
12-002,YA,A,19,1,stable,1,2,3,1,1,197,509,413,0,0,0,3,4,1,2,1,2,1,6,1.6499E+12,1.6499E+12,1.6499E+12,1.6499E+12,1.6499E+12,1.6499E+12,1.6499E+12,1.65E+12,0,18,1746437
12-002,YA,A,20,1,stable,5,1,1,1,1,202,1001,136,0,0,0,2,1,1,2,1,2,1,2,1.6499E+12,1.6499E+12,1.6499E+12,1.6499E+12,1.6499E+12,1.6499E+12,1.6499E+12,1.65E+12,0,19,1755659
12-002,YA,A,21,1,stable,5,2,4,2,2,212,524,207,0,0,0,4,3,1,2,1,2,5,2,1.6499E+12,1.6499E+12,1.6499E+12,1.6499E+12,1.6499E+12,1.6499E+12,1.6499E+12,1.65E+12,0,20,1765076
12-002,YA,A,22,1,stable,1,2,4,2,5,217,538,91,0,0,0,4,3,1,2,1,2,6,5,1.6499E+12,1.6499E+12,1.6499E+12,1.6499E+12,1.6499E+12,1.6499E+12,1.6499E+12,1.65E+12,0,21,1775097
12-002,YA,A,23,1,stable,1,1,2,2,9,226,909,472,0,0,0,1,2,1,2,1,2,8,9,1.6499E+12,1.6499E+12,1.6499E+12,1.6499E+12,1.6499E+12,1.6499E+12,1.6499E+12,1.65E+12,0,22,1785929
12-002,YA,A,24,1,stable,5,2,3,1,7,261,710,455,0,0,0,3,4,1,2,1,2,7,4,1.6499E+12,1.6499E+12,1.6499E+12,1.6499E+12,1.6499E+12,1.6499E+12,1.6499E+12,1.65E+12,0,23,1796355
12-002,YA,A,25,1,stable,5,2,3,1,8,301,739,54,0,0,0,4,3,1,2,1,2,8,2,1.6499E+12,1.6499E+12,1.6499E+12,1.6499E+12,1.6499E+12,1.6499E+12,1.6499E+12,1.65E+12,0,24,1806979
12-002,YA,A,26,1,stable,5,2,4,2,1,306,1149,79,0,0,0,3,4,1,2,1,2,8,1,1.6499E+12,1.6499E+12,1.6499E+12,1.6499E+12,1.6499E+12,1.6499E+12,1.6499E+12,1.65E+12,0,25,1816195
12-002,YA,A,27,1,stable,1,1,1,1,8,314,1493,230,0,0,0,1,2,1,2,1,2,8,1,1.6499E+12,1.6499E+12,1.6499E+12,1.6499E+12,1.6499E+12,1.6499E+12,1.6499E+12,1.65E+12,0,26,1826820
12-002,YA,A,28,1,stable,1,2,3,1,4,318,484,359,0,0,0,3,4,1,2,1,2,4,2,1.6499E+12,1.6499E+12,1.6499E+12,1.6499E+12,1.6499E+12,1.6499E+12,1.6499E+12,1.65E+12,0,27,1836637
12-002,YA,A,29,1,stable,5,1,2,2,5,343,665,283,0,0,0,2,1,1,2,1,2,8,5,1.6499E+12,1.6499E+12,1.6499E+12,1.6499E+12,1.6499E+12,1.6499E+12,1.6499E+12,1.65E+12,0,28,1846657
12-002,YA,A,30,1,stable,1,1,2,2,4,347,528,1,0,0,0,1,2,1,2,1,2,8,4,1.6499E+12,1.6499E+12,1.6499E+12,1.6499E+12,1.6499E+12,1.6499E+12,1.6499E+12,1.65E+12,0,29,1856477
12-002,YA,A,31,1,stable,5,2,3,1,5,372,674,220,0,0,0,3,4,1,2,1,2,5,6,1.6499E+12,1.6499E+12,1.6499E+12,1.6499E+12,1.6499E+12,1.6499E+12,1.6499E+12,1.65E+12,0,30,1866503
12-002,YA,A,32,1,stable,5,2,3,1,0,372,760,74,0,0,0,4,3,1,2,1,2,0,4,1.6499E+12,1.6499E+12,1.6499E+12,1.6499E+12,1.6499E+12,1.6499E+12,1.6499E+12,1.65E+12,0,31,1875518
12-002,YA,A,33,1,stable,5,1,1,1,5,397,866,84,0,0,0,2,1,1,2,1,2,5,3,1.6499E+12,1.6499E+12,1.6499E+12,1.6499E+12,1.6499E+12,1.6499E+12,1.6499E+12,1.65E+12,0,32,1885538
12-002,YA,A,34,1,stable,1,1,2,2,3,400,613,511,0,0,0,2,1,1,2,1,2,6,3,1.6499E+12,1.6499E+12,1.6499E+12,1.6499E+12,1.6499E+12,1.6499E+12,1.6499E+12,1.65E+12,0,33,1895156
12-002,YA,A,35,1,stable,5,2,4,2,2,410,491,446,0,0,0,3,4,1,2,1,2,8,2,1.6499E+12,1.6499E+12,1.6499E+12,1.6499E+12,1.6499E+12,1.6499E+12,1.6499E+12,1.65E+12,0,34,1904572
12-002,YA,A,36,1,stable,1,2,3,1,8,418,586,11,0,0,0,3,4,1,2,1,2,8,2,1.6499E+12,1.6499E+12,1.6499E+12,1.6499E+12,1.6499E+12,1.6499E+12,1.6499E+12,1.65E+12,0,35,1915198
12-002,YA,A,37,1,stable,5,2,3,1,5,443,520,313,0,0,0,4,3,1,2,1,2,5,2,1.6499E+12,1.6499E+12,1.6499E+12,1.6499E+12,1.6499E+12,1.6499E+12,1.6499E+12,1.65E+12,0,36,1925222
12-002,YA,A,38,1,stable,5,1,1,1,5,468,848,195,0,0,0,1,2,1,2,1,2,5,7,1.6499E+12,1.6499E+12,1.6499E+12,1.6499E+12,1.6499E+12,1.6499E+12,1.6499E+12,1.65E+12,0,37,1935241
12-002,YA,A,39,1,stable,5,2,3,1,6,498,461,607,0,0,0,3,4,1,2,1,2,6,6,1.6499E+12,1.6499E+12,1.6499E+12,1.6499E+12,1.6499E+12,1.6499E+12,1.6499E+12,1.65E+12,0,38,1945465
12-002,YA,A,40,1,stable,5,1,1,1,7,533,730,140,0,0,0,1,2,1,2,1,2,7,8,1.6499E+12,1.6499E+12,1.6499E+12,1.6499E+12,1.6499E+12,1.6499E+12,1.6499E+12,1.65E+12,0,39,1955891
12-002,YA,A,41,1,stable,1,2,3,1,6,539,844,798,0,0,0,4,3,1,2,1,2,6,7,1.6499E+12,1.6499E+12,1.6499E+12,1.6499E+12,1.6499E+12,1.6499E+12,1.6499E+12,1.65E+12,0,40,1966114
12-002,YA,A,42,1,stable,5,2,3,1,1,544,492,223,0,0,0,3,4,1,2,1,2,1,7,1.6499E+12,1.6499E+12,1.6499E+12,1.6499E+12,1.6499E+12,1.6499E+12,1.6499E+12,1.65E+12,0,41,1975329
12-002,YA,A,43,1,stable,5,2,4,2,5,569,477,559,0,0,0,4,3,1,2,1,2,2,5,1.6499E+12,1.6499E+12,1.6499E+12,1.6499E+12,1.6499E+12,1.6499E+12,1.6499E+12,1.65E+12,0,42,1985350
12-002,YA,A,44,1,stable,1,2,4,2,7,576,585,80,0,0,0,4,3,1,2,1,2,2,7,1.6499E+12,1.6499E+12,1.6499E+12,1.6499E+12,1.6499E+12,1.6499E+12,1.6499E+12,1.65E+12,0,43,1995774
12-002,YA,A,45,1,stable,1,2,3,1,3,579,879,265,0,0,0,4,3,1,2,1,2,3,8,1.6499E+12,1.6499E+12,1.6499E+12,1.6499E+12,1.6499E+12,1.6499E+12,1.6499E+12,1.65E+12,0,44,2005394
12-002,YA,A,46,1,stable,1,2,4,2,8,587,556,311,0,0,0,3,4,1,2,1,2,7,8,1.6499E+12,1.6499E+12,1.6499E+12,1.6499E+12,1.6499E+12,1.6499E+12,1.6499E+12,1.65E+12,0,45,2016017
12-002,YA,A,47,1,stable,5,1,2,2,9,632,847,186,0,0,0,1,2,1,2,1,2,1,9,1.6499E+12,1.6499E+12,1.6499E+12,1.6499E+12,1.6499E+12,1.6499E+12,1.6499E+12,1.65E+12,0,46,2026843
12-002,YA,A,48,1,stable,5,2,4,2,9,677,843,382,0,0,0,4,3,1,2,1,2,1,9,1.6499E+12,1.6499E+12,1.6499E+12,1.6499E+12,1.6499E+12,1.6499E+12,1.6499E+12,1.65E+12,0,47,2037670
12-002,YA,A,49,1,stable,5,2,4,2,6,707,687,434,0,0,0,4,3,1,2,1,2,1,6,1.6499E+12,1.6499E+12,1.6499E+12,1.6499E+12,1.6499E+12,1.6499E+12,1.6499E+12,1.65E+12,0,48,2047896
12-002,YA,A,50,1,stable,5,2,4,2,7,742,510,920,0,0,0,4,3,1,2,1,2,0,7,1.6499E+12,1.6499E+12,1.6499E+12,1.6499E+12,1.6499E+12,1.6499E+12,1.6499E+12,1.65E+12,0,49,2058323
12-002,YA,A,51,1,stable,5,1,2,2,6,772,921,242,0,0,0,2,1,1,2,1,2,2,6,1.6499E+12,1.6499E+12,1.6499E+12,1.6499E+12,1.6499E+12,1.6499E+12,1.6499E+12,1.65E+12,0,50,2068550
12-002,YA,A,52,1,stable,5,2,4,2,4,792,806,448,0,0,0,4,3,1,2,1,2,0,4,1.6499E+12,1.6499E+12,1.6499E+12,1.6499E+12,1.6499E+12,1.6499E+12,1.6499E+12,1.65E+12,0,51,2078373
12-002,YA,A,53,1,stable,5,2,4,2,5,817,832,26,0,0,0,3,4,1,2,1,2,4,5,1.6499E+12,1.6499E+12,1.6499E+12,1.6499E+12,1.6499E+12,1.6499E+12,1.6499E+12,1.65E+12,0,52,2088396
12-002,YA,A,54,1,stable,1,2,4,2,5,822,827,95,0,0,0,4,3,1,2,1,2,4,5,1.6499E+12,1.6499E+12,1.6499E+12,1.6499E+12,1.6499E+12,1.6499E+12,1.6499E+12,1.65E+12,0,53,2098416
12-002,YA,A,55,1,stable,5,1,2,2,8,862,854,368,0,0,0,1,2,1,2,1,2,6,8,1.6499E+12,1.6499E+12,1.6499E+12,1.6499E+12,1.6499E+12,1.6499E+12,1.6499E+12,1.65E+12,0,54,2109040
12-002,YA,A,56,1,stable,1,1,2,2,6,868,598,114,0,0,0,2,1,1,2,1,2,5,6,1.6499E+12,1.6499E+12,1.6499E+12,1.6499E+12,1.6499E+12,1.6499E+12,1.6499E+12,1.65E+12,0,55,2119263
12-002,YA,A,57,1,stable,5,1,2,2,8,908,983,288,0,0,0,2,1,1,2,1,2,5,8,1.6499E+12,1.6499E+12,1.6499E+12,1.6499E+12,1.6499E+12,1.6499E+12,1.6499E+12,1.65E+12,0,56,2129895
12-002,YA,A,58,1,stable,1,2,4,2,8,916,721,73,0,0,0,3,4,1,2,1,2,5,8,1.6499E+12,1.6499E+12,1.6499E+12,1.6499E+12,1.6499E+12,1.6499E+12,1.6499E+12,1.65E+12,0,57,2140519
12-002,YA,A,59,1,stable,5,1,2,2,8,956,648,467,0,0,0,1,2,1,2,1,2,4,8,1.6499E+12,1.6499E+12,1.6499E+12,1.6499E+12,1.6499E+12,1.6499E+12,1.6499E+12,1.65E+12,0,58,2151141
12-002,YA,A,60,1,stable,1,2,4,2,8,964,595,255,0,0,0,3,4,1,2,1,2,3,8,1.6499E+12,1.6499E+12,1.6499E+12,1.6499E+12,1.6499E+12,1.6499E+12,1.6499E+12,1.65E+12,0,59,2161763
12-002,YA,A,61,1,stable,1,1,2,2,8,972,484,565,0,0,0,1,2,1,2,1,2,3,8,1.6499E+12,1.6499E+12,1.6499E+12,1.6499E+12,1.6499E+12,1.6499E+12,1.6499E+12,1.65E+12,0,60,2172386
12-002,YA,A,62,1,stable,1,1,2,2,9,981,525,558,0,0,0,2,1,1,2,1,2,1,9,1.6499E+12,1.6499E+12,1.6499E+12,1.6499E+12,1.6499E+12,1.6499E+12,1.6499E+12,1.65E+12,0,61,2183212
12-002,YA,A,63,1,stable,1,2,4,2,8,989,674,1307,0,0,0,3,4,1,2,1,2,4,8,1.6499E+12,1.6499E+12,1.6499E+12,1.6499E+12,1.6499E+12,1.6499E+12,1.6499E+12,1.65E+12,0,62,2193837
12-002,YA,A,64,1,stable,1,2,4,2,4,993,475,486,0,0,0,4,3,1,2,1,2,5,4,1.6499E+12,1.6499E+12,1.6499E+12,1.6499E+12,1.6499E+12,1.6499E+12,1.6499E+12,1.65E+12,0,63,2203655
12-002,YA,A,65,1,stable,1,1,1,1,9,1002,640,473,0,0,0,2,1,1,2,1,2,9,5,1.6499E+12,1.6499E+12,1.6499E+12,1.6499E+12,1.6499E+12,1.6499E+12,1.6499E+12,1.65E+12,0,64,2214482
12-002,YA,A,66,1,stable,5,1,1,1,8,1042,1077,183,0,0,0,1,2,1,2,1,2,8,7,1.6499E+12,1.6499E+12,1.6499E+12,1.6499E+12,1.6499E+12,1.6499E+12,1.6499E+12,1.65E+12,0,65,2225109
12-002,YA,A,67,1,stable,1,2,3,1,8,1050,675,654,0,0,0,3,4,1,2,1,2,8,8,1.6499E+12,1.6499E+12,1.6499E+12,1.6499E+12,1.6499E+12,1.6499E+12,1.6499E+12,1.65E+12,0,66,2235735
12-002,YA,A,68,1,stable,1,2,3,1,7,1057,469,112,0,0,0,4,3,1,2,1,2,7,8,1.6499E+12,1.6499E+12,1.6499E+12,1.6499E+12,1.6499E+12,1.6499E+12,1.6499E+12,1.65E+12,0,67,2246159
12-002,YA,A,69,1,stable,5,2,3,1,9,1102,856,472,0,0,0,3,4,1,2,1,2,9,8,1.6499E+12,1.6499E+12,1.6499E+12,1.6499E+12,1.6499E+12,1.6499E+12,1.6499E+12,1.65E+12,0,68,2256990
12-002,YA,A,70,1,stable,5,2,3,1,8,1142,513,676,0,0,0,4,3,1,2,1,2,8,8,1.6499E+12,1.6499E+12,1.6499E+12,1.6499E+12,1.6499E+12,1.6499E+12,1.6499E+12,1.65E+12,0,69,2267618
12-002,YA,A,71,1,stable,1,1,2,2,8,1150,1180,566,0,0,0,1,2,1,2,1,2,6,8,1.6499E+12,1.6499E+12,1.6499E+12,1.6499E+12,1.6499E+12,1.6499E+12,1.6499E+12,1.65E+12,0,70,2278243
12-002,YA,A,72,1,stable,1,2,3,1,7,1157,468,14,0,0,0,3,4,1,2,1,2,7,6,1.6499E+12,1.6499E+12,1.6499E+12,1.6499E+12,1.6499E+12,1.6499E+12,1.6499E+12,1.65E+12,0,71,2288668
12-002,YA,A,73,1,stable,1,1,1,1,6,1163,634,443,0,0,0,2,1,1,2,1,2,6,5,1.6499E+12,1.6499E+12,1.6499E+12,1.6499E+12,1.6499E+12,1.6499E+12,1.6499E+12,1.65E+12,0,72,2298892
12-002,YA,A,74,1,stable,1,1,2,2,5,1168,643,470,0,0,0,1,2,1,2,1,2,2,5,1.6499E+12,1.6499E+12,1.6499E+12,1.6499E+12,1.6499E+12,1.6499E+12,1.6499E+12,1.65E+12,0,73,2308913
12-002,YA,A,75,1,stable,5,1,1,1,1,1173,575,544,0,0,0,1,2,1,2,1,2,1,6,1.6499E+12,1.6499E+12,1.6499E+12,1.6499E+12,1.6499E+12,1.6499E+12,1.6499E+12,1.65E+12,0,74,2318128
12-002,YA,A,76,1,stable,5,1,2,2,8,1213,805,143,0,0,0,1,2,1,2,1,2,1,8,1.6499E+12,1.6499E+12,1.6499E+12,1.6499E+12,1.6499E+12,1.6499E+12,1.6499E+12,1.65E+12,0,75,2328754
12-002,YA,A,77,1,stable,5,1,2,2,7,1248,572,295,0,0,0,1,2,1,2,1,2,2,7,1.6499E+12,1.6499E+12,1.6499E+12,1.6499E+12,1.6499E+12,1.6499E+12,1.6499E+12,1.65E+12,0,76,2339177
12-002,YA,A,78,1,stable,1,1,2,2,6,1254,645,926,0,0,0,2,1,1,2,1,2,0,6,1.6499E+12,1.6499E+12,1.6499E+12,1.6499E+12,1.6499E+12,1.6499E+12,1.6499E+12,1.65E+12,0,77,2349401
12-002,YA,A,79,1,stable,1,1,2,2,2,1256,619,428,0,0,0,1,2,1,2,1,2,3,2,1.6499E+12,1.6499E+12,1.6499E+12,1.6499E+12,1.6499E+12,1.6499E+12,1.6499E+12,1.65E+12,0,78,2358822
12-002,YA,A,80,1,stable,5,1,1,1,6,1286,561,107,0,0,0,2,1,1,2,1,2,6,3,1.6499E+12,1.6499E+12,1.6499E+12,1.6499E+12,1.6499E+12,1.6499E+12,1.6499E+12,1.65E+12,0,79,2369046
12-002,YA,A,21,2,variable,1,2,4,2,4,116,1494,686,0,0,0,3,4,1,2,1,2,2,4,0,0,1.6499E+12,1.6499E+12,1.6499E+12,1.6499E+12,1.6499E+12,1.65E+12,1,20,1023468
12-002,YA,A,22,2,variable,1,2,3,1,1,117,1581,463,0,0,0,3,4,1,2,1,2,1,5,0,0,1.6499E+12,1.6499E+12,1.6499E+12,1.6499E+12,1.6499E+12,1.65E+12,1,21,1029733
12-002,YA,A,23,2,variable,1,2,4,2,7,124,891,13,0,0,0,3,4,1,2,1,2,1,7,0,0,1.6499E+12,1.6499E+12,1.6499E+12,1.6499E+12,1.6499E+12,1.65E+12,1,22,1036072
12-002,YA,A,24,2,variable,1,2,4,2,9,133,1098,599,0,0,0,4,3,1,2,1,2,1,9,0,0,1.6499E+12,1.6499E+12,1.6499E+12,1.6499E+12,1.6499E+12,1.65E+12,1,23,1043603
12-002,YA,A,25,2,variable,1,2,4,2,9,142,1197,14,0,0,0,3,4,1,2,1,2,1,9,0,0,1.6499E+12,1.6499E+12,1.6499E+12,1.6499E+12,1.6499E+12,1.65E+12,1,24,1050652
12-002,YA,A,26,2,variable,1,1,2,2,8,150,1605,134,0,0,0,1,2,1,2,1,2,2,8,0,0,1.6499E+12,1.6499E+12,1.6499E+12,1.6499E+12,1.6499E+12,1.65E+12,1,25,1058021
12-002,YA,A,27,2,variable,1,2,4,2,8,158,845,180,0,0,0,4,3,1,2,1,2,1,8,0,0,1.6499E+12,1.6499E+12,1.6499E+12,1.6499E+12,1.6499E+12,1.65E+12,1,26,1064680
12-002,YA,A,28,2,variable,1,2,4,2,7,165,490,225,0,0,0,4,3,1,2,1,2,0,7,0,0,1.6499E+12,1.6499E+12,1.6499E+12,1.6499E+12,1.6499E+12,1.65E+12,1,27,1070825
12-002,YA,A,29,2,variable,1,1,2,2,8,173,800,247,0,0,0,1,2,1,2,1,2,0,8,0,0,1.6499E+12,1.6499E+12,1.6499E+12,1.6499E+12,1.6499E+12,1.65E+12,1,28,1077506
12-002,YA,A,30,2,variable,1,2,4,2,7,180,808,703,0,0,0,4,3,1,2,1,2,1,7,0,0,1.6499E+12,1.6499E+12,1.6499E+12,1.6499E+12,1.6499E+12,1.65E+12,1,29,1084446
12-002,YA,A,31,2,variable,1,2,4,1,3,183,494,359,0,0,0,4,3,2,1,2,1,3,9,0,0,1.6499E+12,1.6499E+12,1.6499E+12,1.6499E+12,1.6499E+12,1.65E+12,1,30,1089921
12-002,YA,A,32,2,variable,1,2,3,2,5,188,1088,126,0,0,0,4,3,2,1,2,1,3,5,0,0,1.6499E+12,1.6499E+12,1.6499E+12,1.6499E+12,1.6499E+12,1.65E+12,1,31,1096162
12-002,YA,A,33,2,variable,1,1,2,1,2,190,912,765,0,0,0,2,1,2,1,2,1,2,2,0,0,1.6499E+12,1.6499E+12,1.6499E+12,1.6499E+12,1.6499E+12,1.65E+12,1,32,1102265
12-002,YA,A,34,2,variable,1,2,3,2,0,190,2899,1428,0,0,0,3,4,2,1,2,1,5,0,0,0,1.6499E+12,1.6499E+12,1.6499E+12,1.6499E+12,1.6499E+12,1.65E+12,1,33,1110613
12-002,YA,A,35,2,variable,1,1,2,1,8,198,1044,789,0,0,0,1,2,2,1,2,1,8,0,0,0,1.6499E+12,1.6499E+12,1.6499E+12,1.6499E+12,1.6499E+12,1.65E+12,1,34,1118078
12-002,YA,A,36,2,variable,1,2,3,2,2,200,790,476,0,0,0,4,3,2,1,2,1,6,2,0,0,1.6499E+12,1.6499E+12,1.6499E+12,1.6499E+12,1.6499E+12,1.65E+12,1,35,1123767
12-002,YA,A,37,2,variable,1,2,3,2,3,203,2160,15,0,0,0,3,4,2,1,2,1,7,3,0,0,1.6499E+12,1.6499E+12,1.6499E+12,1.6499E+12,1.6499E+12,1.65E+12,1,36,1130569
12-002,YA,A,38,2,variable,1,2,3,2,5,208,982,494,0,0,0,4,3,2,1,2,1,5,5,0,0,1.6499E+12,1.6499E+12,1.6499E+12,1.6499E+12,1.6499E+12,1.65E+12,1,37,1137073
12-002,YA,A,39,2,variable,1,2,4,1,7,215,1578,630,0,0,0,4,3,2,1,2,1,7,3,0,0,1.6499E+12,1.6499E+12,1.6499E+12,1.6499E+12,1.6499E+12,1.65E+12,1,38,1144707
12-002,YA,A,40,2,variable,1,2,4,1,7,222,990,78,0,0,0,3,4,2,1,2,1,7,4,0,0,1.6499E+12,1.6499E+12,1.6499E+12,1.6499E+12,1.6499E+12,1.65E+12,1,39,1151206
12-002,YA,A,81,2,variable,1,1,1,1,6,1292,399,1489,0,0,0,1,2,1,2,2,1,6,1,1.6499E+12,1.6499E+12,1.6499E+12,1.6499E+12,1.6499E+12,1.6499E+12,1.6499E+12,1.65E+12,0,80,2507006
12-002,YA,A,82,2,variable,1,1,1,1,8,1300,624,689,0,0,0,2,1,1,2,2,1,8,1,1.6499E+12,1.6499E+12,1.6499E+12,1.6499E+12,1.6499E+12,1.6499E+12,1.6499E+12,1.65E+12,0,81,2517636
12-002,YA,A,83,2,variable,1,2,4,1,6,1306,705,762,0,0,0,3,4,1,2,2,1,6,4,1.6499E+12,1.6499E+12,1.6499E+12,1.6499E+12,1.6499E+12,1.6499E+12,1.6499E+12,1.65E+12,0,82,2527860
12-002,YA,A,84,2,variable,5,1,1,1,9,1351,1338,414,0,0,0,2,1,1,2,2,1,9,2,1.6499E+12,1.6499E+12,1.6499E+12,1.6499E+12,1.6499E+12,1.6499E+12,1.6499E+12,1.65E+12,0,83,2538686
12-002,YA,A,85,2,variable,1,2,4,1,7,1358,767,522,0,0,0,3,4,1,2,2,1,7,4,1.6499E+12,1.6499E+12,1.6499E+12,1.6499E+12,1.6499E+12,1.6499E+12,1.6499E+12,1.65E+12,0,84,2549110
12-002,YA,A,86,2,variable,1,1,1,1,9,1367,767,272,0,0,0,2,1,1,2,2,1,9,7,1.6499E+12,1.6499E+12,1.6499E+12,1.6499E+12,1.6499E+12,1.6499E+12,1.6499E+12,1.65E+12,0,85,2559942
12-002,YA,A,87,2,variable,5,1,1,1,9,1412,600,483,0,0,0,1,2,1,2,2,1,9,7,1.6499E+12,1.6499E+12,1.6499E+12,1.6499E+12,1.6499E+12,1.6499E+12,1.6499E+12,1.65E+12,0,86,2570768
12-002,YA,A,88,2,variable,1,2,3,2,8,1420,596,622,0,0,0,3,4,1,2,2,1,6,8,1.6499E+12,1.6499E+12,1.6499E+12,1.6499E+12,1.6499E+12,1.6499E+12,1.6499E+12,1.65E+12,0,87,2581399
12-002,YA,A,89,2,variable,5,2,3,2,9,1465,614,664,0,0,0,3,4,1,2,2,1,3,9,1.6499E+12,1.6499E+12,1.6499E+12,1.6499E+12,1.6499E+12,1.6499E+12,1.6499E+12,1.65E+12,0,88,2592229
12-002,YA,A,90,2,variable,5,2,3,2,8,1505,586,483,0,0,0,4,3,1,2,2,1,1,8,1.6499E+12,1.6499E+12,1.6499E+12,1.6499E+12,1.6499E+12,1.6499E+12,1.6499E+12,1.65E+12,0,89,2602855
12-002,YA,A,91,2,variable,5,2,3,2,6,1535,568,393,0,0,0,3,4,1,2,2,1,3,6,1.6499E+12,1.6499E+12,1.6499E+12,1.6499E+12,1.6499E+12,1.6499E+12,1.6499E+12,1.65E+12,0,90,2613080
12-002,YA,A,92,2,variable,1,2,3,2,8,1543,430,153,0,0,0,4,3,1,2,2,1,0,8,1.6499E+12,1.6499E+12,1.6499E+12,1.6499E+12,1.6499E+12,1.6499E+12,1.6499E+12,1.65E+12,0,91,2623706
12-002,YA,A,93,2,variable,1,2,3,2,7,1550,948,287,0,0,0,4,3,2,1,2,1,4,7,1.6499E+12,1.6499E+12,1.6499E+12,1.6499E+12,1.6499E+12,1.6499E+12,1.6499E+12,1.65E+12,0,92,2634131
12-002,YA,A,94,2,variable,1,1,2,1,7,1557,443,469,0,0,0,2,1,2,1,2,1,7,7,1.6499E+12,1.6499E+12,1.6499E+12,1.6499E+12,1.6499E+12,1.6499E+12,1.6499E+12,1.65E+12,0,93,2644556
12-002,YA,A,95,2,variable,5,2,4,1,9,1602,569,499,0,0,0,4,3,2,1,2,1,9,8,1.6499E+12,1.6499E+12,1.6499E+12,1.6499E+12,1.6499E+12,1.6499E+12,1.6499E+12,1.65E+12,0,94,2655386
12-002,YA,A,96,2,variable,5,1,1,2,6,1632,587,462,0,0,0,2,1,2,1,2,1,8,6,1.6499E+12,1.6499E+12,1.6499E+12,1.6499E+12,1.6499E+12,1.6499E+12,1.6499E+12,1.65E+12,0,95,2665610
12-002,YA,A,97,2,variable,5,1,2,1,8,1672,723,84,0,0,0,1,2,2,1,2,1,8,8,1.6499E+12,1.6499E+12,1.6499E+12,1.6499E+12,1.6499E+12,1.6499E+12,1.6499E+12,1.65E+12,0,96,2676238
12-002,YA,A,98,2,variable,1,1,2,1,8,1680,792,27,0,0,0,2,1,2,1,2,1,8,2,1.6499E+12,1.6499E+12,1.6499E+12,1.6499E+12,1.6499E+12,1.6499E+12,1.6499E+12,1.65E+12,0,97,2686861
12-002,YA,A,99,2,variable,5,2,4,1,7,1715,904,410,0,0,0,3,4,2,1,2,1,7,2,1.6499E+12,1.6499E+12,1.6499E+12,1.6499E+12,1.6499E+12,1.6499E+12,1.6499E+12,1.65E+12,0,98,2697288
12-002,YA,A,100,2,variable,1,2,4,1,6,1721,565,399,0,0,0,4,3,2,1,2,1,6,1,1.6499E+12,1.6499E+12,1.6499E+12,1.6499E+12,1.6499E+12,1.6499E+12,1.6499E+12,1.65E+12,0,99,2707510
12-002,YA,A,101,2,variable,5,2,4,2,1,1726,887,296,0,0,0,4,3,2,1,1,2,7,1,1.6499E+12,1.6499E+12,1.6499E+12,1.6499E+12,1.6499E+12,1.6499E+12,1.6499E+12,1.65E+12,0,100,2716727
12-002,YA,A,102,2,variable,5,1,1,2,5,1751,598,353,0,0,0,2,1,2,1,1,2,5,5,1.6499E+12,1.6499E+12,1.6499E+12,1.6499E+12,1.6499E+12,1.6499E+12,1.6499E+12,1.65E+12,0,101,2726752
12-002,YA,A,103,2,variable,1,1,2,1,3,1754,783,169,0,0,0,2,1,2,1,1,2,3,3,1.6499E+12,1.6499E+12,1.6499E+12,1.6499E+12,1.6499E+12,1.6499E+12,1.6499E+12,1.65E+12,0,102,2736371
12-002,YA,A,104,2,variable,5,2,4,2,3,1769,1041,290,0,0,0,3,4,2,1,1,2,0,3,1.6499E+12,1.6499E+12,1.6499E+12,1.6499E+12,1.6499E+12,1.6499E+12,1.6499E+12,1.65E+12,0,103,2745994
12-002,YA,A,105,2,variable,5,1,2,1,2,1779,460,325,0,0,0,2,1,2,1,1,2,2,3,1.6499E+12,1.6499E+12,1.6499E+12,1.6499E+12,1.6499E+12,1.6499E+12,1.6499E+12,1.65E+12,0,104,2755412
12-002,YA,A,106,2,variable,5,1,2,1,2,1789,570,11,0,0,0,1,2,2,1,1,2,2,3,1.6499E+12,1.6499E+12,1.6499E+12,1.6499E+12,1.6499E+12,1.6499E+12,1.6499E+12,1.65E+12,0,105,2764831
12-002,YA,A,107,2,variable,1,2,4,1,6,1795,750,185,0,0,0,4,3,2,1,2,1,6,1,1.6499E+12,1.6499E+12,1.6499E+12,1.6499E+12,1.6499E+12,1.6499E+12,1.6499E+12,1.65E+12,0,106,2775056
12-002,YA,A,108,2,variable,1,1,1,2,1,1796,789,625,0,0,0,2,1,2,1,2,1,7,1,1.6499E+12,1.6499E+12,1.6499E+12,1.6499E+12,1.6499E+12,1.6499E+12,1.6499E+12,1.65E+12,0,107,2784272
12-002,YA,A,109,2,variable,5,1,2,1,7,1831,454,137,0,0,0,2,1,2,1,2,1,7,1,1.6499E+12,1.6499E+12,1.6499E+12,1.6499E+12,1.6499E+12,1.6499E+12,1.6499E+12,1.65E+12,0,108,2794696
12-002,YA,A,110,2,variable,1,2,3,2,4,1835,555,141,0,0,0,4,3,2,1,2,1,6,4,1.6499E+12,1.6499E+12,1.6499E+12,1.6499E+12,1.6499E+12,1.6499E+12,1.6499E+12,1.65E+12,0,109,2804521
12-002,YA,A,111,2,variable,1,1,2,1,4,1839,828,462,0,0,0,1,2,2,1,2,1,4,8,1.6499E+12,1.6499E+12,1.6499E+12,1.6499E+12,1.6499E+12,1.6499E+12,1.6499E+12,1.65E+12,0,110,2814342
12-002,YA,A,112,2,variable,5,1,1,2,7,1874,686,545,0,0,0,1,2,2,1,2,1,7,7,1.6499E+12,1.6499E+12,1.6499E+12,1.6499E+12,1.6499E+12,1.6499E+12,1.6499E+12,1.65E+12,0,111,2824764
12-002,YA,A,113,2,variable,1,1,1,2,6,1880,767,107,0,0,0,1,2,2,1,2,1,6,6,1.6499E+12,1.6499E+12,1.6499E+12,1.6499E+12,1.6499E+12,1.6499E+12,1.6499E+12,1.65E+12,0,112,2834986
12-002,YA,A,114,2,variable,1,2,3,2,5,1885,762,549,0,0,0,3,4,2,1,2,1,6,5,1.6499E+12,1.6499E+12,1.6499E+12,1.6499E+12,1.6499E+12,1.6499E+12,1.6499E+12,1.65E+12,0,113,2845007
12-002,YA,A,115,2,variable,5,1,1,2,3,1900,580,15,0,0,0,1,2,2,1,2,1,8,3,1.6499E+12,1.6499E+12,1.6499E+12,1.6499E+12,1.6499E+12,1.6499E+12,1.6499E+12,1.65E+12,0,114,2854629
12-002,YA,A,116,2,variable,1,1,2,1,7,1907,536,51,0,0,0,2,1,2,1,2,1,7,3,1.6499E+12,1.6499E+12,1.6499E+12,1.6499E+12,1.6499E+12,1.6499E+12,1.6499E+12,1.65E+12,0,115,2865051
12-002,YA,A,117,2,variable,1,2,4,1,8,1915,738,180,0,0,0,4,3,2,1,2,1,8,4,1.6499E+12,1.6499E+12,1.6499E+12,1.6499E+12,1.6499E+12,1.6499E+12,1.6499E+12,1.65E+12,0,116,2875678
12-002,YA,A,118,2,variable,1,1,2,2,4,1919,958,130,0,0,0,1,2,1,2,2,1,7,4,1.6499E+12,1.6499E+12,1.6499E+12,1.6499E+12,1.6499E+12,1.6499E+12,1.6499E+12,1.65E+12,0,117,2885497
12-002,YA,A,119,2,variable,1,2,4,1,6,1925,1380,591,0,0,0,3,4,1,2,2,1,6,1,1.6499E+12,1.6499E+12,1.6499E+12,1.6499E+12,1.6499E+12,1.6499E+12,1.6499E+12,1.65E+12,0,118,2895720
12-002,YA,A,120,2,variable,1,1,1,1,7,1932,622,296,0,0,0,1,2,1,2,2,1,7,1,1.6499E+12,1.6499E+12,1.6499E+12,1.6499E+12,1.6499E+12,1.6499E+12,1.6499E+12,1.65E+12,0,119,2906144
12-002,YA,A,121,2,variable,1,2,4,1,7,1939,1092,24,0,0,0,3,4,1,2,2,1,7,3,1.6499E+12,1.6499E+12,1.6499E+12,1.6499E+12,1.6499E+12,1.6499E+12,1.6499E+12,1.65E+12,0,120,2916567
12-002,YA,A,122,2,variable,5,1,1,1,9,1984,957,583,0,0,0,2,1,1,2,2,1,9,3,1.6499E+12,1.6499E+12,1.6499E+12,1.6499E+12,1.6499E+12,1.6499E+12,1.6499E+12,1.65E+12,0,121,2927395
12-002,YA,A,123,2,variable,5,2,4,1,8,2024,689,196,0,0,0,3,4,1,2,2,1,8,3,1.6499E+12,1.6499E+12,1.6499E+12,1.6499E+12,1.6499E+12,1.6499E+12,1.6499E+12,1.65E+12,0,122,2938020
12-002,YA,A,124,2,variable,5,1,1,1,8,2064,862,375,0,0,0,1,2,1,2,2,1,8,4,1.6499E+12,1.6499E+12,1.6499E+12,1.6499E+12,1.6499E+12,1.6499E+12,1.6499E+12,1.65E+12,0,123,2948651
12-002,YA,A,125,2,variable,5,1,1,1,6,2094,739,453,0,0,0,2,1,1,2,2,1,6,3,1.6499E+12,1.6499E+12,1.6499E+12,1.6499E+12,1.6499E+12,1.6499E+12,1.6499E+12,1.65E+12,0,124,2958876
12-002,YA,A,126,2,variable,5,2,4,1,7,2129,913,443,0,0,0,4,3,1,2,2,1,7,4,1.6499E+12,1.6499E+12,1.6499E+12,1.6499E+12,1.6499E+12,1.6499E+12,1.6499E+12,1.65E+12,0,125,2969300
12-002,YA,A,127,2,variable,1,1,2,2,7,2136,849,300,0,0,0,2,1,1,2,2,1,7,7,1.6499E+12,1.6499E+12,1.6499E+12,1.6499E+12,1.6499E+12,1.6499E+12,1.6499E+12,1.65E+12,0,126,2979725
12-002,YA,A,128,2,variable,5,1,2,2,6,2166,1335,792,0,0,0,1,2,1,2,2,1,5,6,1.6499E+12,1.6499E+12,1.6499E+12,1.6499E+12,1.6499E+12,1.6499E+12,1.6499E+12,1.65E+12,0,127,2989949
12-002,YA,A,129,2,variable,5,1,2,2,8,2206,728,1066,0,0,0,2,1,1,2,2,1,6,8,1.6499E+12,1.6499E+12,1.6499E+12,1.6499E+12,1.6499E+12,1.6499E+12,1.6499E+12,1.65E+12,0,128,3000578
12-002,YA,A,130,2,variable,5,2,3,2,7,2241,996,167,0,0,0,4,3,1,2,2,1,7,7,1.6499E+12,1.6499E+12,1.6499E+12,1.6499E+12,1.6499E+12,1.6499E+12,1.6499E+12,1.65E+12,0,129,3010998
12-002,YA,A,131,2,variable,1,1,2,2,6,2247,1030,15,0,0,0,2,1,1,2,2,1,7,6,1.6499E+12,1.6499E+12,1.6499E+12,1.6499E+12,1.6499E+12,1.6499E+12,1.6499E+12,1.65E+12,0,130,3021224
12-002,YA,A,132,2,variable,5,2,4,1,8,2287,620,222,0,0,0,3,4,2,1,2,1,8,7,1.6499E+12,1.6499E+12,1.6499E+12,1.6499E+12,1.6499E+12,1.6499E+12,1.6499E+12,1.65E+12,0,131,3031853
12-002,YA,A,133,2,variable,1,2,4,1,7,2294,608,329,0,0,0,3,4,2,1,2,1,7,8,1.6499E+12,1.6499E+12,1.6499E+12,1.6499E+12,1.6499E+12,1.6499E+12,1.6499E+12,1.65E+12,0,132,3042276
12-002,YA,A,134,2,variable,1,1,1,2,8,2302,1241,169,0,0,0,1,2,2,1,2,1,7,8,1.6499E+12,1.6499E+12,1.6499E+12,1.6499E+12,1.6499E+12,1.6499E+12,1.6499E+12,1.65E+12,0,133,3052906
12-002,YA,A,135,2,variable,1,2,3,2,8,2310,685,497,0,0,0,4,3,2,1,2,1,6,8,1.6499E+12,1.6499E+12,1.6499E+12,1.6499E+12,1.6499E+12,1.6499E+12,1.6499E+12,1.65E+12,0,134,3063529
12-002,YA,A,136,2,variable,1,1,1,2,5,2315,836,390,0,0,0,1,2,2,1,2,1,5,5,1.6499E+12,1.6499E+12,1.6499E+12,1.6499E+12,1.6499E+12,1.6499E+12,1.6499E+12,1.65E+12,0,135,3073552
12-002,YA,A,137,2,variable,1,1,2,1,0,2315,556,385,0,0,0,1,2,2,1,2,1,0,8,1.6499E+12,1.6499E+12,1.6499E+12,1.6499E+12,1.6499E+12,1.6499E+12,1.6499E+12,1.65E+12,0,136,3082571
12-002,YA,A,138,2,variable,1,2,4,1,1,2316,1369,197,0,0,0,4,3,2,1,2,1,1,7,1.6499E+12,1.6499E+12,1.6499E+12,1.6499E+12,1.6499E+12,1.6499E+12,1.6499E+12,1.65E+12,0,137,3091787
12-002,YA,A,139,2,variable,5,1,-1,-1,0,2316,-1,-1,1,0,1,2,1,2,1,2,1,2,6,1.6499E+12,1.6499E+12,1.6499E+12,0,0,0,0,1.65E+12,0,138,3098300
12-002,YA,A,140,2,variable,5,1,1,2,5,2341,385,481,0,0,0,2,1,2,1,2,1,0,5,1.6499E+12,1.6499E+12,1.6499E+12,1.6499E+12,1.6499E+12,1.6499E+12,1.6499E+12,1.65E+12,0,139,3108324
12-002,YA,A,141,2,variable,5,1,2,1,0,2341,569,36,0,0,0,1,2,2,1,2,1,0,4,1.6499E+12,1.6499E+12,1.6499E+12,1.6499E+12,1.6499E+12,1.6499E+12,1.6499E+12,1.65E+12,0,140,3117338
12-002,YA,A,142,2,variable,5,2,3,2,7,2376,570,364,0,0,0,4,3,2,1,2,1,1,7,1.6499E+12,1.6499E+12,1.6499E+12,1.6499E+12,1.6499E+12,1.6499E+12,1.6499E+12,1.65E+12,0,141,3127763
12-002,YA,A,143,2,variable,5,2,4,1,1,2381,754,100,0,0,0,4,3,2,1,2,1,1,7,1.6499E+12,1.6499E+12,1.6499E+12,1.6499E+12,1.6499E+12,1.6499E+12,1.6499E+12,1.65E+12,0,142,3136980
12-002,YA,A,144,2,variable,1,2,4,1,2,2383,967,459,0,0,0,3,4,2,1,2,1,2,7,1.6499E+12,1.6499E+12,1.6499E+12,1.6499E+12,1.6499E+12,1.6499E+12,1.6499E+12,1.65E+12,0,143,3146400
12-002,YA,A,145,2,variable,5,2,3,1,3,2398,1060,382,0,0,0,4,3,2,1,1,2,3,5,1.6499E+12,1.6499E+12,1.6499E+12,1.6499E+12,1.6499E+12,1.6499E+12,1.6499E+12,1.65E+12,0,144,3156021
12-002,YA,A,146,2,variable,5,2,4,2,2,2408,700,125,0,0,0,3,4,2,1,1,2,4,2,1.6499E+12,1.6499E+12,1.6499E+12,1.6499E+12,1.6499E+12,1.6499E+12,1.6499E+12,1.65E+12,0,145,3165444
12-002,YA,A,147,2,variable,5,2,4,2,6,2438,1288,131,0,0,0,3,4,2,1,1,2,0,6,1.6499E+12,1.6499E+12,1.6499E+12,1.6499E+12,1.6499E+12,1.6499E+12,1.6499E+12,1.65E+12,0,146,3175666
12-002,YA,A,148,2,variable,5,2,3,1,4,2458,579,398,0,0,0,4,3,2,1,1,2,4,6,1.6499E+12,1.6499E+12,1.6499E+12,1.6499E+12,1.6499E+12,1.6499E+12,1.6499E+12,1.65E+12,0,147,3185484
12-002,YA,A,149,2,variable,1,2,4,2,6,2464,633,394,0,0,0,3,4,2,1,1,2,6,6,1.6499E+12,1.6499E+12,1.6499E+12,1.6499E+12,1.6499E+12,1.6499E+12,1.6499E+12,1.65E+12,0,148,3195706
12-002,YA,A,150,2,variable,1,2,3,1,2,2466,355,29,0,0,0,4,3,2,1,1,2,2,8,1.6499E+12,1.6499E+12,1.6499E+12,1.6499E+12,1.6499E+12,1.6499E+12,1.6499E+12,1.65E+12,0,149,3205122
12-002,YA,A,151,2,variable,5,1,2,1,1,2471,875,77,0,0,0,1,2,2,1,1,2,1,8,1.6499E+12,1.6499E+12,1.6499E+12,1.6499E+12,1.6499E+12,1.6499E+12,1.6499E+12,1.65E+12,0,150,3214338
12-002,YA,A,152,2,variable,5,2,4,1,0,2471,950,844,0,0,0,3,4,2,1,2,1,0,8,1.6499E+12,1.6499E+12,1.6499E+12,1.6499E+12,1.6499E+12,1.6499E+12,1.6499E+12,1.65E+12,0,151,3223356
12-002,YA,A,153,2,variable,5,2,3,2,7,2506,913,517,0,0,0,3,4,2,1,2,1,0,7,1.6499E+12,1.6499E+12,1.6499E+12,1.6499E+12,1.6499E+12,1.6499E+12,1.6499E+12,1.65E+12,0,152,3233777
12-002,YA,A,154,2,variable,5,2,3,2,7,2541,676,327,0,0,0,4,3,2,1,2,1,3,7,1.6499E+12,1.6499E+12,1.6499E+12,1.6499E+12,1.6499E+12,1.6499E+12,1.6499E+12,1.65E+12,0,153,3244206
12-002,YA,A,155,2,variable,1,2,3,2,8,2549,542,104,0,0,0,4,3,2,1,2,1,4,8,1.6499E+12,1.6499E+12,1.6499E+12,1.6499E+12,1.6499E+12,1.6499E+12,1.6499E+12,1.65E+12,0,154,3254834
12-002,YA,A,156,2,variable,1,2,4,1,4,2553,539,141,0,0,0,3,4,2,1,2,1,4,8,1.6499E+12,1.6499E+12,1.6499E+12,1.6499E+12,1.6499E+12,1.6499E+12,1.6499E+12,1.65E+12,0,155,3264654
12-002,YA,A,157,2,variable,1,1,1,2,8,2561,975,82,0,0,0,1,2,2,1,2,1,6,8,1.6499E+12,1.6499E+12,1.6499E+12,1.6499E+12,1.6499E+12,1.6499E+12,1.6499E+12,1.65E+12,0,156,3275278
12-002,YA,A,158,2,variable,1,1,1,2,8,2569,535,961,0,0,0,1,2,2,1,2,1,4,8,1.6499E+12,1.6499E+12,1.6499E+12,1.6499E+12,1.6499E+12,1.6499E+12,1.6499E+12,1.65E+12,0,157,3285904
12-002,YA,A,159,2,variable,5,1,1,2,5,2594,681,316,0,0,0,1,2,2,1,2,1,4,5,1.6499E+12,1.6499E+12,1.6499E+12,1.6499E+12,1.6499E+12,1.6499E+12,1.6499E+12,1.65E+12,0,158,3295928
12-002,YA,A,160,2,variable,1,1,1,2,5,2599,803,23,0,0,0,2,1,2,1,2,1,8,5,1.6499E+12,1.6499E+12,1.6499E+12,1.6499E+12,1.6499E+12,1.6499E+12,1.6499E+12,1.65E+12,0,159,3305950
12-002,YA,A,161,3,stable,1,2,-1,-1,0,2599,-1,-1,1,0,1,4,3,2,1,2,1,6,6,1.6499E+12,1.6499E+12,1.6499E+12,0,0,0,0,1.65E+12,0,160,3413242
12-002,YA,A,162,3,stable,1,1,1,2,0,2599,315,-1,0,1,1,2,1,2,1,2,1,6,7,1.6499E+12,1.6499E+12,1.6499E+12,1.6499E+12,1.6499E+12,0,0,1.65E+12,0,161,3421759
12-002,YA,A,163,3,stable,1,1,2,1,8,2607,414,16,0,0,0,1,2,2,1,2,1,8,7,1.6499E+12,1.6499E+12,1.6499E+12,1.6499E+12,1.6499E+12,1.6499E+12,1.6499E+12,1.65E+12,0,162,3432387
12-002,YA,A,164,3,stable,5,1,2,1,7,2642,250,84,0,0,0,1,2,2,1,2,1,7,4,1.6499E+12,1.6499E+12,1.6499E+12,1.6499E+12,1.6499E+12,1.6499E+12,1.6499E+12,1.65E+12,0,163,3442814
12-002,YA,A,165,3,stable,5,2,3,2,8,2682,397,62,0,0,0,4,3,2,1,2,1,9,8,1.6499E+12,1.6499E+12,1.6499E+12,1.6499E+12,1.6499E+12,1.6499E+12,1.6499E+12,1.65E+12,0,164,3453443
12-002,YA,A,166,3,stable,1,2,3,2,5,2687,402,477,0,0,0,4,3,2,1,2,1,7,5,1.6499E+12,1.6499E+12,1.6499E+12,1.6499E+12,1.6499E+12,1.6499E+12,1.6499E+12,1.65E+12,0,165,3463462
12-002,YA,A,167,3,stable,5,2,4,1,6,2717,470,63,0,0,0,4,3,2,1,2,1,6,6,1.6499E+12,1.6499E+12,1.6499E+12,1.6499E+12,1.6499E+12,1.6499E+12,1.6499E+12,1.65E+12,0,166,3473687
12-002,YA,A,168,3,stable,5,2,4,1,6,2747,676,189,0,0,0,3,4,2,1,2,1,6,8,1.6499E+12,1.6499E+12,1.6499E+12,1.6499E+12,1.6499E+12,1.6499E+12,1.6499E+12,1.65E+12,0,167,3483915
12-002,YA,A,169,3,stable,5,2,4,1,8,2787,641,145,0,0,0,3,4,2,1,2,1,8,7,1.6499E+12,1.6499E+12,1.6499E+12,1.6499E+12,1.6499E+12,1.6499E+12,1.6499E+12,1.65E+12,0,168,3494545
12-002,YA,A,170,3,stable,1,1,2,1,5,2792,539,372,0,0,0,1,2,2,1,2,1,5,8,1.6499E+12,1.6499E+12,1.6499E+12,1.6499E+12,1.6499E+12,1.6499E+12,1.6499E+12,1.65E+12,0,169,3504572
12-002,YA,A,171,3,stable,5,2,3,2,9,2837,509,391,0,0,0,3,4,2,1,2,1,3,9,1.6499E+12,1.6499E+12,1.6499E+12,1.6499E+12,1.6499E+12,1.6499E+12,1.6499E+12,1.65E+12,0,170,3515406
12-002,YA,A,172,3,stable,1,2,3,2,8,2845,886,304,0,0,0,3,4,2,1,2,1,5,8,1.6499E+12,1.6499E+12,1.6499E+12,1.6499E+12,1.6499E+12,1.6499E+12,1.6499E+12,1.65E+12,0,171,3526031
12-002,YA,A,173,3,stable,1,1,2,1,6,2851,989,384,0,0,0,1,2,2,1,2,1,6,4,1.6499E+12,1.6499E+12,1.6499E+12,1.6499E+12,1.6499E+12,1.6499E+12,1.6499E+12,1.65E+12,0,172,3536252
12-002,YA,A,174,3,stable,5,1,1,2,2,2861,512,235,0,0,0,2,1,2,1,2,1,4,2,1.6499E+12,1.6499E+12,1.6499E+12,1.6499E+12,1.6499E+12,1.6499E+12,1.6499E+12,1.65E+12,0,173,3545669
12-002,YA,A,175,3,stable,5,1,1,2,3,2876,598,248,0,0,0,2,1,2,1,2,1,4,3,1.6499E+12,1.6499E+12,1.6499E+12,1.6499E+12,1.6499E+12,1.6499E+12,1.6499E+12,1.65E+12,0,174,3555288
12-002,YA,A,176,3,stable,5,1,2,1,4,2896,475,367,0,0,0,1,2,2,1,2,1,4,2,1.6499E+12,1.6499E+12,1.6499E+12,1.6499E+12,1.6499E+12,1.6499E+12,1.6499E+12,1.65E+12,0,175,3565107
12-002,YA,A,177,3,stable,5,1,2,1,5,2921,345,354,0,0,0,2,1,2,1,2,1,5,4,1.6499E+12,1.6499E+12,1.6499E+12,1.6499E+12,1.6499E+12,1.6499E+12,1.6499E+12,1.65E+12,0,176,3575129
12-002,YA,A,178,3,stable,5,2,3,2,4,2941,379,37,0,0,0,4,3,2,1,2,1,3,4,1.6499E+12,1.6499E+12,1.6499E+12,1.6499E+12,1.6499E+12,1.6499E+12,1.6499E+12,1.65E+12,0,177,3584949
12-002,YA,A,179,3,stable,5,2,4,1,1,2946,447,136,0,0,0,3,4,2,1,2,1,1,2,1.6499E+12,1.6499E+12,1.6499E+12,1.6499E+12,1.6499E+12,1.6499E+12,1.6499E+12,1.65E+12,0,178,3594166
12-002,YA,A,180,3,stable,1,1,1,2,5,2951,812,232,0,0,0,2,1,2,1,2,1,1,5,1.6499E+12,1.6499E+12,1.6499E+12,1.6499E+12,1.6499E+12,1.6499E+12,1.6499E+12,1.65E+12,0,179,3604192
12-002,YA,A,181,3,stable,1,1,2,1,3,2954,948,381,0,0,0,2,1,2,1,2,1,3,4,1.6499E+12,1.6499E+12,1.6499E+12,1.6499E+12,1.6499E+12,1.6499E+12,1.6499E+12,1.65E+12,0,180,3613813
12-002,YA,A,182,3,stable,1,1,2,1,5,2959,422,17,0,0,0,1,2,2,1,2,1,5,2,1.6499E+12,1.6499E+12,1.6499E+12,1.6499E+12,1.6499E+12,1.6499E+12,1.6499E+12,1.65E+12,0,181,3623835
12-002,YA,A,183,3,stable,1,1,1,2,2,2961,721,74,0,0,0,2,1,2,1,2,1,8,2,1.6499E+12,1.6499E+12,1.6499E+12,1.6499E+12,1.6499E+12,1.6499E+12,1.6499E+12,1.65E+12,0,182,3633256
12-002,YA,A,184,3,stable,1,2,4,1,6,2967,523,334,0,0,0,3,4,2,1,2,1,6,1,1.6499E+12,1.6499E+12,1.6499E+12,1.6499E+12,1.6499E+12,1.6499E+12,1.6499E+12,1.65E+12,0,183,3643481
12-002,YA,A,185,3,stable,1,2,4,1,8,2975,587,46,0,0,0,4,3,2,1,2,1,8,1,1.6499E+12,1.6499E+12,1.6499E+12,1.6499E+12,1.6499E+12,1.6499E+12,1.6499E+12,1.65E+12,0,184,3654105
12-002,YA,A,186,3,stable,1,2,4,1,7,2982,450,339,0,0,0,3,4,2,1,2,1,7,3,1.6499E+12,1.6499E+12,1.6499E+12,1.6499E+12,1.6499E+12,1.6499E+12,1.6499E+12,1.65E+12,0,185,3664533
12-002,YA,A,187,3,stable,5,2,4,1,6,3012,614,583,0,0,0,3,4,2,1,2,1,6,2,1.6499E+12,1.6499E+12,1.6499E+12,1.6499E+12,1.6499E+12,1.6499E+12,1.6499E+12,1.65E+12,0,186,3674760
12-002,YA,A,188,3,stable,1,2,4,1,7,3019,455,1417,0,0,0,3,4,2,1,2,1,7,0,1.6499E+12,1.6499E+12,1.6499E+12,1.6499E+12,1.6499E+12,1.6499E+12,1.6499E+12,1.65E+12,0,187,3685191
12-002,YA,A,189,3,stable,5,1,1,2,1,3024,692,447,0,0,0,2,1,2,1,2,1,7,1,1.6499E+12,1.6499E+12,1.6499E+12,1.6499E+12,1.6499E+12,1.6499E+12,1.6499E+12,1.65E+12,0,188,3694407
12-002,YA,A,190,3,stable,5,1,2,1,5,3049,604,373,0,0,0,2,1,2,1,2,1,5,0,1.6499E+12,1.6499E+12,1.6499E+12,1.6499E+12,1.6499E+12,1.6499E+12,1.6499E+12,1.65E+12,0,189,3704432
12-002,YA,A,191,3,stable,1,1,2,1,7,3056,626,434,0,0,0,2,1,2,1,2,1,7,0,1.6499E+12,1.6499E+12,1.6499E+12,1.6499E+12,1.6499E+12,1.6499E+12,1.6499E+12,1.65E+12,0,190,3714863
12-002,YA,A,192,3,stable,1,2,4,1,7,3063,843,468,0,0,0,3,4,2,1,2,1,7,5,1.6499E+12,1.6499E+12,1.6499E+12,1.6499E+12,1.6499E+12,1.6499E+12,1.6499E+12,1.65E+12,0,191,3725293
12-002,YA,A,193,3,stable,5,1,2,1,7,3098,567,506,0,0,0,1,2,2,1,2,1,7,3,1.6499E+12,1.6499E+12,1.6499E+12,1.6499E+12,1.6499E+12,1.6499E+12,1.6499E+12,1.65E+12,0,192,3735716
12-002,YA,A,194,3,stable,1,1,2,1,9,3107,599,145,0,0,0,1,2,2,1,2,1,9,5,1.6499E+12,1.6499E+12,1.6499E+12,1.6499E+12,1.6499E+12,1.6499E+12,1.6499E+12,1.65E+12,0,193,3746544
12-002,YA,A,195,3,stable,5,1,2,1,8,3147,498,98,0,0,0,1,2,2,1,2,1,8,8,1.6499E+12,1.6499E+12,1.6499E+12,1.6499E+12,1.6499E+12,1.6499E+12,1.6499E+12,1.65E+12,0,194,3757175
12-002,YA,A,196,3,stable,1,2,4,1,6,3153,636,144,0,0,0,3,4,2,1,2,1,6,5,1.6499E+12,1.6499E+12,1.6499E+12,1.6499E+12,1.6499E+12,1.6499E+12,1.6499E+12,1.65E+12,0,195,3767397
12-002,YA,A,197,3,stable,1,1,1,2,4,3157,742,425,0,0,0,2,1,2,1,2,1,5,4,1.6499E+12,1.6499E+12,1.6499E+12,1.6499E+12,1.6499E+12,1.6499E+12,1.6499E+12,1.65E+12,0,196,3777218
12-002,YA,A,198,3,stable,1,1,2,1,7,3164,634,646,0,0,0,2,1,2,1,2,1,7,3,1.6499E+12,1.6499E+12,1.6499E+12,1.6499E+12,1.6499E+12,1.6499E+12,1.6499E+12,1.65E+12,0,197,3787640
12-002,YA,A,199,3,stable,5,2,4,1,8,3204,531,251,0,0,0,4,3,2,1,2,1,8,2,1.6499E+12,1.6499E+12,1.6499E+12,1.6499E+12,1.6499E+12,1.6499E+12,1.6499E+12,1.65E+12,0,198,3798269
12-002,YA,A,200,3,stable,5,1,2,1,6,3234,494,383,0,0,0,2,1,2,1,2,1,6,2,1.6499E+12,1.6499E+12,1.6499E+12,1.6499E+12,1.6499E+12,1.6499E+12,1.6499E+12,1.65E+12,0,199,3808495
12-002,YA,A,201,3,stable,5,1,2,1,4,3254,621,357,0,0,0,1,2,2,1,2,1,4,0,1.6499E+12,1.6499E+12,1.6499E+12,1.6499E+12,1.6499E+12,1.6499E+12,1.6499E+12,1.65E+12,0,200,3818318
12-002,YA,A,202,3,stable,5,2,3,2,3,3269,446,295,0,0,0,4,3,2,1,2,1,4,3,1.6499E+12,1.6499E+12,1.6499E+12,1.6499E+12,1.6499E+12,1.6499E+12,1.6499E+12,1.65E+12,0,201,3827939
12-002,YA,A,203,3,stable,5,2,3,2,3,3284,473,404,0,0,0,4,3,2,1,2,1,5,3,1.6499E+12,1.6499E+12,1.6499E+12,1.6499E+12,1.6499E+12,1.6499E+12,1.6499E+12,1.65E+12,0,202,3837558
12-002,YA,A,204,3,stable,5,2,4,1,6,3314,454,455,0,0,0,3,4,2,1,2,1,6,4,1.6499E+12,1.6499E+12,1.6499E+12,1.6499E+12,1.6499E+12,1.6499E+12,1.6499E+12,1.65E+12,0,203,3847785
12-002,YA,A,205,3,stable,5,1,2,1,3,3329,579,20,0,0,0,1,2,2,1,2,1,3,3,1.6499E+12,1.6499E+12,1.6499E+12,1.6499E+12,1.6499E+12,1.6499E+12,1.6499E+12,1.65E+12,0,204,3857408
12-002,YA,A,206,3,stable,1,2,3,2,3,3332,789,712,0,0,0,4,3,2,1,2,1,0,3,1.6499E+12,1.6499E+12,1.6499E+12,1.6499E+12,1.6499E+12,1.6499E+12,1.6499E+12,1.65E+12,0,205,3867026
12-002,YA,A,207,3,stable,5,1,2,1,4,3352,626,677,0,0,0,1,2,2,1,2,1,4,6,1.6499E+12,1.6499E+12,1.6499E+12,1.6499E+12,1.6499E+12,1.6499E+12,1.6499E+12,1.65E+12,0,206,3876846
12-002,YA,A,208,3,stable,1,2,3,2,6,3358,398,64,0,0,0,4,3,2,1,2,1,3,6,1.6499E+12,1.6499E+12,1.6499E+12,1.6499E+12,1.6499E+12,1.6499E+12,1.6499E+12,1.65E+12,0,207,3887072
12-002,YA,A,209,3,stable,1,1,2,1,6,3364,484,30,0,0,0,1,2,2,1,2,1,6,5,1.6499E+12,1.6499E+12,1.6499E+12,1.6499E+12,1.6499E+12,1.6499E+12,1.6499E+12,1.65E+12,0,208,3897293
12-002,YA,A,210,3,stable,5,2,3,2,8,3404,685,528,0,0,0,4,3,2,1,2,1,7,8,1.6499E+12,1.6499E+12,1.6499E+12,1.6499E+12,1.6499E+12,1.6499E+12,1.6499E+12,1.65E+12,0,209,3907920
12-002,YA,A,211,3,stable,1,2,3,2,7,3411,924,94,0,0,0,3,4,2,1,2,1,9,7,1.6499E+12,1.6499E+12,1.6499E+12,1.6499E+12,1.6499E+12,1.6499E+12,1.6499E+12,1.65E+12,0,210,3918347
12-002,YA,A,212,3,stable,5,2,3,2,9,3456,480,114,0,0,0,4,3,2,1,2,1,7,9,1.6499E+12,1.6499E+12,1.6499E+12,1.6499E+12,1.6499E+12,1.6499E+12,1.6499E+12,1.65E+12,0,211,3929175
12-002,YA,A,213,3,stable,1,2,3,2,9,3465,571,526,0,0,0,4,3,2,1,2,1,8,9,1.6499E+12,1.6499E+12,1.6499E+12,1.6499E+12,1.6499E+12,1.6499E+12,1.6499E+12,1.65E+12,0,212,3940006
12-002,YA,A,214,3,stable,5,2,3,2,9,3510,734,185,0,0,0,3,4,2,1,2,1,7,9,1.6499E+12,1.6499E+12,1.6499E+12,1.6499E+12,1.6499E+12,1.6499E+12,1.6499E+12,1.65E+12,0,213,3950828
12-002,YA,A,215,3,stable,1,1,1,2,8,3518,648,299,0,0,0,2,1,2,1,2,1,7,8,1.6499E+12,1.6499E+12,1.6499E+12,1.6499E+12,1.6499E+12,1.6499E+12,1.6499E+12,1.65E+12,0,214,3961455
12-002,YA,A,216,3,stable,5,2,3,2,7,3553,580,367,0,0,0,3,4,2,1,2,1,8,7,1.6499E+12,1.6499E+12,1.6499E+12,1.6499E+12,1.6499E+12,1.6499E+12,1.6499E+12,1.65E+12,0,215,3971881
12-002,YA,A,217,3,stable,1,2,3,2,3,3556,1033,378,0,0,0,3,4,2,1,2,1,7,3,1.6499E+12,1.6499E+12,1.6499E+12,1.6499E+12,1.6499E+12,1.6499E+12,1.6499E+12,1.65E+12,0,216,3981503
12-002,YA,A,218,3,stable,1,1,2,1,8,3564,508,421,0,0,0,1,2,2,1,2,1,8,6,1.6499E+12,1.6499E+12,1.6499E+12,1.6499E+12,1.6499E+12,1.6499E+12,1.6499E+12,1.65E+12,0,217,3992132
12-002,YA,A,219,3,stable,1,2,4,1,8,3572,815,433,0,0,0,4,3,2,1,2,1,8,8,1.6499E+12,1.6499E+12,1.6499E+12,1.6499E+12,1.6499E+12,1.6499E+12,1.6499E+12,1.65E+12,0,218,4002761
12-002,YA,A,220,3,stable,5,2,4,1,8,3612,761,378,0,0,0,4,3,2,1,2,1,8,7,1.6499E+12,1.6499E+12,1.6499E+12,1.6499E+12,1.6499E+12,1.6499E+12,1.6499E+12,1.65E+12,0,219,4013391
12-002,YA,A,221,3,stable,5,2,4,1,7,3647,837,535,0,0,0,4,3,2,1,2,1,7,6,1.6499E+12,1.6499E+12,1.6499E+12,1.6499E+12,1.6499E+12,1.6499E+12,1.6499E+12,1.65E+12,0,220,4023815
12-002,YA,A,222,3,stable,1,2,4,1,7,3654,748,302,0,0,0,4,3,2,1,2,1,7,4,1.6499E+12,1.6499E+12,1.6499E+12,1.6499E+12,1.6499E+12,1.6499E+12,1.6499E+12,1.65E+12,0,221,4034241
12-002,YA,A,223,3,stable,5,1,1,2,4,3674,624,411,0,0,0,2,1,2,1,2,1,6,4,1.6499E+12,1.6499E+12,1.6499E+12,1.6499E+12,1.6499E+12,1.6499E+12,1.6499E+12,1.65E+12,0,222,4044064
12-002,YA,A,224,3,stable,5,1,2,1,7,3709,546,308,0,0,0,2,1,2,1,2,1,7,4,1.6499E+12,1.6499E+12,1.6499E+12,1.6499E+12,1.6499E+12,1.6499E+12,1.6499E+12,1.65E+12,0,223,4054491
12-002,YA,A,225,3,stable,1,2,4,1,9,3718,542,343,0,0,0,4,3,2,1,2,1,9,6,1.6499E+12,1.6499E+12,1.6499E+12,1.6499E+12,1.6499E+12,1.6499E+12,1.6499E+12,1.65E+12,0,224,4065323
12-002,YA,A,226,3,stable,1,2,4,1,8,3726,576,810,0,0,0,3,4,2,1,2,1,8,5,1.6499E+12,1.6499E+12,1.6499E+12,1.6499E+12,1.6499E+12,1.6499E+12,1.6499E+12,1.65E+12,0,225,4075950
12-002,YA,A,227,3,stable,1,1,2,1,7,3733,612,420,0,0,0,1,2,2,1,2,1,7,5,1.6499E+12,1.6499E+12,1.6499E+12,1.6499E+12,1.6499E+12,1.6499E+12,1.6499E+12,1.65E+12,0,226,4086379
12-002,YA,A,228,3,stable,1,2,4,1,5,3738,872,473,0,0,0,4,3,2,1,2,1,5,7,1.6499E+12,1.6499E+12,1.6499E+12,1.6499E+12,1.6499E+12,1.6499E+12,1.6499E+12,1.65E+12,0,227,4096402
12-002,YA,A,229,3,stable,5,1,2,1,4,3758,680,584,0,0,0,1,2,2,1,2,1,4,5,1.6499E+12,1.6499E+12,1.6499E+12,1.6499E+12,1.6499E+12,1.6499E+12,1.6499E+12,1.65E+12,0,228,4106228
12-002,YA,A,230,3,stable,1,1,1,2,5,3763,839,378,0,0,0,1,2,2,1,2,1,2,5,1.6499E+12,1.6499E+12,1.6499E+12,1.6499E+12,1.6499E+12,1.6499E+12,1.6499E+12,1.65E+12,0,229,4116251
12-002,YA,A,231,3,stable,1,1,1,2,3,3766,568,402,0,0,0,2,1,2,1,2,1,2,3,1.6499E+12,1.6499E+12,1.6499E+12,1.6499E+12,1.6499E+12,1.6499E+12,1.6499E+12,1.65E+12,0,230,4125871
12-002,YA,A,232,3,stable,5,1,1,2,2,3776,787,510,0,0,0,1,2,2,1,2,1,1,2,1.6499E+12,1.6499E+12,1.6499E+12,1.6499E+12,1.6499E+12,1.6499E+12,1.6499E+12,1.65E+12,0,231,4135289
12-002,YA,A,233,3,stable,5,1,2,1,2,3786,617,429,0,0,0,2,1,2,1,2,1,2,1,1.6499E+12,1.6499E+12,1.6499E+12,1.6499E+12,1.6499E+12,1.6499E+12,1.6499E+12,1.65E+12,0,232,4144707
12-002,YA,A,234,3,stable,5,1,2,1,4,3806,655,256,0,0,0,2,1,2,1,2,1,4,3,1.6499E+12,1.6499E+12,1.6499E+12,1.6499E+12,1.6499E+12,1.6499E+12,1.6499E+12,1.65E+12,0,233,4154531
12-002,YA,A,235,3,stable,5,2,4,1,5,3831,1064,667,0,0,0,3,4,2,1,2,1,5,0,1.6499E+12,1.6499E+12,1.6499E+12,1.6499E+12,1.6499E+12,1.6499E+12,1.6499E+12,1.65E+12,0,234,4164554
12-002,YA,A,236,3,stable,5,1,2,1,6,3861,673,318,0,0,0,1,2,2,1,2,1,6,2,1.6499E+12,1.6499E+12,1.6499E+12,1.6499E+12,1.6499E+12,1.6499E+12,1.6499E+12,1.65E+12,0,235,4174775
12-002,YA,A,237,3,stable,1,2,4,1,9,3870,460,485,0,0,0,3,4,2,1,2,1,9,4,1.6499E+12,1.6499E+12,1.6499E+12,1.6499E+12,1.6499E+12,1.6499E+12,1.6499E+12,1.65E+12,0,236,4185603
12-002,YA,A,238,3,stable,1,1,2,1,7,3877,665,442,0,0,0,1,2,2,1,2,1,7,3,1.6499E+12,1.6499E+12,1.6499E+12,1.6499E+12,1.6499E+12,1.6499E+12,1.6499E+12,1.65E+12,0,237,4196028
12-002,YA,A,239,3,stable,1,1,2,1,6,3883,551,521,0,0,0,2,1,2,1,2,1,6,1,1.6499E+12,1.6499E+12,1.6499E+12,1.6499E+12,1.6499E+12,1.6499E+12,1.6499E+12,1.65E+12,0,238,4206254
12-002,YA,A,240,3,stable,5,2,4,1,6,3913,461,437,0,0,0,3,4,2,1,2,1,6,1,1.6499E+12,1.6499E+12,1.6499E+12,1.6499E+12,1.6499E+12,1.6499E+12,1.6499E+12,1.65E+12,0,239,4216481
12-002,YA,A,241,4,variable,5,2,4,2,0,3913,857,-1,0,1,1,3,4,2,1,1,2,8,3,1.6499E+12,1.6499E+12,1.6499E+12,1.6499E+12,1.6499E+12,0,0,1.65E+12,0,240,4235518
12-002,YA,A,242,4,variable,1,1,2,1,8,3921,475,350,0,0,0,1,2,2,1,1,2,8,5,1.6499E+12,1.6499E+12,1.6499E+12,1.6499E+12,1.6499E+12,1.6499E+12,1.6499E+12,1.65E+12,0,241,4246147
12-002,YA,A,243,4,variable,5,1,1,2,7,3956,567,258,0,0,0,2,1,2,1,1,2,7,7,1.6499E+12,1.6499E+12,1.6499E+12,1.6499E+12,1.6499E+12,1.6499E+12,1.6499E+12,1.65E+12,0,242,4256575
12-002,YA,A,244,4,variable,1,1,1,2,6,3962,587,621,0,0,0,2,1,2,1,1,2,6,6,1.6499E+12,1.6499E+12,1.6499E+12,1.6499E+12,1.6499E+12,1.6499E+12,1.6499E+12,1.65E+12,0,243,4266801
12-002,YA,A,245,4,variable,1,1,2,1,7,3969,561,298,0,0,0,1,2,2,1,1,2,7,7,1.6499E+12,1.6499E+12,1.6499E+12,1.6499E+12,1.6499E+12,1.6499E+12,1.6499E+12,1.65E+12,0,244,4277228
12-002,YA,A,246,4,variable,5,1,2,1,4,3989,589,374,0,0,0,1,2,2,1,1,2,4,7,1.6499E+12,1.6499E+12,1.6499E+12,1.6499E+12,1.6499E+12,1.6499E+12,1.6499E+12,1.65E+12,0,245,4287054
12-002,YA,A,247,4,variable,5,1,1,2,4,4009,933,823,0,0,0,2,1,2,1,1,2,3,4,1.6499E+12,1.6499E+12,1.6499E+12,1.6499E+12,1.6499E+12,1.6499E+12,1.6499E+12,1.65E+12,0,246,4296876
12-002,YA,A,248,4,variable,5,1,1,2,2,4019,623,559,0,0,0,2,1,2,1,1,2,5,2,1.6499E+12,1.6499E+12,1.6499E+12,1.6499E+12,1.6499E+12,1.6499E+12,1.6499E+12,1.65E+12,0,247,4306298
12-002,YA,A,249,4,variable,5,1,2,2,1,4024,569,482,0,0,0,1,2,1,2,1,2,2,1,1.6499E+12,1.6499E+12,1.6499E+12,1.6499E+12,1.6499E+12,1.6499E+12,1.6499E+12,1.65E+12,0,248,4315518
12-002,YA,A,250,4,variable,1,1,1,1,2,4026,1020,943,0,0,0,2,1,1,2,1,2,2,0,1.6499E+12,1.6499E+12,1.6499E+12,1.6499E+12,1.6499E+12,1.6499E+12,1.6499E+12,1.65E+12,0,249,4324937
12-002,YA,A,251,4,variable,5,2,4,2,0,4026,618,-1,0,1,1,3,4,1,2,1,2,3,1,1.6499E+12,1.6499E+12,1.6499E+12,1.6499E+12,1.6499E+12,0,0,1.65E+12,0,250,4333453
12-002,YA,A,252,4,variable,5,2,3,1,1,4031,550,80,0,0,0,4,3,1,2,1,2,1,0,1.6499E+12,1.6499E+12,1.6499E+12,1.6499E+12,1.6499E+12,1.6499E+12,1.6499E+12,1.65E+12,0,251,4342671
12-002,YA,A,253,4,variable,5,1,2,2,0,4031,811,227,0,0,0,1,2,1,2,1,2,0,0,1.6499E+12,1.6499E+12,1.6499E+12,1.6499E+12,1.6499E+12,1.6499E+12,1.6499E+12,1.65E+12,0,252,4351692
12-002,YA,A,254,4,variable,1,2,3,1,1,4032,967,433,0,0,0,4,3,1,2,1,2,1,2,1.6499E+12,1.6499E+12,1.6499E+12,1.6499E+12,1.6499E+12,1.6499E+12,1.6499E+12,1.65E+12,0,253,4360910
12-002,YA,A,255,4,variable,5,2,3,1,2,4042,452,126,0,0,0,4,3,1,2,1,2,2,5,1.6499E+12,1.6499E+12,1.6499E+12,1.6499E+12,1.6499E+12,1.6499E+12,1.6499E+12,1.65E+12,0,254,4370329
12-002,YA,A,256,4,variable,1,2,3,1,2,4044,505,212,0,0,0,4,3,1,2,1,2,2,7,1.6499E+12,1.6499E+12,1.6499E+12,1.6499E+12,1.6499E+12,1.6499E+12,1.6499E+12,1.65E+12,0,255,4379747
12-002,YA,A,257,4,variable,1,2,4,2,0,4044,813,-1,0,1,1,3,4,1,2,1,2,4,8,1.6499E+12,1.6499E+12,1.6499E+12,1.6499E+12,1.6499E+12,0,0,1.65E+12,0,256,4388265
12-002,YA,A,258,4,variable,5,1,2,2,9,4089,431,307,0,0,0,1,2,1,2,1,2,5,9,1.6499E+12,1.6499E+12,1.6499E+12,1.6499E+12,1.6499E+12,1.6499E+12,1.6499E+12,1.65E+12,0,257,4399095
12-002,YA,A,259,4,variable,5,2,3,1,3,4104,714,67,0,0,0,4,3,1,2,1,2,3,7,1.6499E+12,1.6499E+12,1.6499E+12,1.6499E+12,1.6499E+12,1.6499E+12,1.6499E+12,1.65E+12,0,258,4408715
12-002,YA,A,260,4,variable,5,1,2,2,5,4129,479,474,0,0,0,2,1,1,2,2,1,5,5,1.6499E+12,1.6499E+12,1.6499E+12,1.6499E+12,1.6499E+12,1.6499E+12,1.6499E+12,1.65E+12,0,259,4418739
12-002,YA,A,261,4,variable,5,1,2,2,6,4159,615,408,0,0,0,2,1,1,2,2,1,8,6,1.6499E+12,1.6499E+12,1.6499E+12,1.6499E+12,1.6499E+12,1.6499E+12,1.6499E+12,1.65E+12,0,260,4428966
12-002,YA,A,262,4,variable,5,1,2,2,3,4174,1148,413,0,0,0,2,1,1,2,2,1,8,3,1.6499E+12,1.6499E+12,1.6499E+12,1.6499E+12,1.6499E+12,1.6499E+12,1.6499E+12,1.65E+12,0,261,4438589
12-002,YA,A,263,4,variable,5,1,1,1,9,4219,836,294,0,0,0,1,2,1,2,2,1,9,3,1.6499E+12,1.6499E+12,1.6499E+12,1.6499E+12,1.6499E+12,1.6499E+12,1.6499E+12,1.65E+12,0,262,4449418
12-002,YA,A,264,4,variable,1,2,4,1,8,4227,1201,779,0,0,0,3,4,1,2,2,1,8,0,1.6499E+12,1.6499E+12,1.6499E+12,1.6499E+12,1.6499E+12,1.6499E+12,1.6499E+12,1.65E+12,0,263,4460044
12-002,YA,A,265,4,variable,1,1,2,2,1,4228,510,48,0,0,0,1,2,1,2,2,1,7,1,1.6499E+12,1.6499E+12,1.6499E+12,1.6499E+12,1.6499E+12,1.6499E+12,1.6499E+12,1.65E+12,0,264,4469261
12-002,YA,A,266,4,variable,1,2,4,1,6,4234,1085,416,0,0,0,3,4,1,2,2,1,6,3,1.6499E+12,1.6499E+12,1.6499E+12,1.6499E+12,1.6499E+12,1.6499E+12,1.6499E+12,1.65E+12,0,265,4479485
12-002,YA,A,267,4,variable,5,1,1,1,5,4259,742,248,0,0,0,2,1,1,2,2,1,5,4,1.6499E+12,1.6499E+12,1.6499E+12,1.6499E+12,1.6499E+12,1.6499E+12,1.6499E+12,1.65E+12,0,266,4489509
12-002,YA,A,268,4,variable,5,1,1,1,3,4274,1005,335,0,0,0,1,2,1,2,2,1,3,5,1.6499E+12,1.6499E+12,1.6499E+12,1.6499E+12,1.6499E+12,1.6499E+12,1.6499E+12,1.65E+12,0,267,4499130
12-002,YA,A,269,4,variable,5,2,3,1,1,4279,607,283,0,0,0,3,4,1,2,1,2,1,6,1.6499E+12,1.6499E+12,1.6499E+12,1.6499E+12,1.6499E+12,1.6499E+12,1.6499E+12,1.65E+12,0,268,4508348
12-002,YA,A,270,4,variable,1,2,3,1,2,4281,743,185,0,0,0,4,3,1,2,1,2,2,5,1.6499E+12,1.6499E+12,1.6499E+12,1.6499E+12,1.6499E+12,1.6499E+12,1.6499E+12,1.65E+12,0,269,4517767
12-002,YA,A,271,4,variable,5,2,4,2,3,4296,1018,372,0,0,0,3,4,1,2,1,2,4,3,1.6499E+12,1.6499E+12,1.6499E+12,1.6499E+12,1.6499E+12,1.6499E+12,1.6499E+12,1.65E+12,0,270,4527388
12-002,YA,A,272,4,variable,1,1,2,2,2,4298,910,721,0,0,0,1,2,1,2,1,2,2,2,1.6499E+12,1.6499E+12,1.6499E+12,1.6499E+12,1.6499E+12,1.6499E+12,1.6499E+12,1.65E+12,0,271,4536808
12-002,YA,A,273,4,variable,5,2,4,2,4,4318,922,548,0,0,0,4,3,1,2,1,2,2,4,1.6499E+12,1.6499E+12,1.6499E+12,1.6499E+12,1.6499E+12,1.6499E+12,1.6499E+12,1.65E+12,0,272,4546632
12-002,YA,A,274,4,variable,1,1,1,1,1,4319,898,380,0,0,0,2,1,1,2,1,2,1,5,1.6499E+12,1.6499E+12,1.6499E+12,1.6499E+12,1.6499E+12,1.6499E+12,1.6499E+12,1.65E+12,0,273,4555850
12-002,YA,A,275,4,variable,5,2,3,1,6,4349,472,651,0,0,0,3,4,1,2,1,2,6,3,1.6499E+12,1.6499E+12,1.6499E+12,1.6499E+12,1.6499E+12,1.6499E+12,1.6499E+12,1.65E+12,0,274,4566074
12-002,YA,A,276,4,variable,5,1,1,1,5,4374,735,474,0,0,0,1,2,1,2,1,2,5,5,1.6499E+12,1.6499E+12,1.6499E+12,1.6499E+12,1.6499E+12,1.6499E+12,1.6499E+12,1.65E+12,0,275,4576100
12-002,YA,A,277,4,variable,1,2,3,1,4,4378,581,217,0,0,0,3,4,1,2,1,2,4,0,1.6499E+12,1.6499E+12,1.6499E+12,1.6499E+12,1.6499E+12,1.6499E+12,1.6499E+12,1.65E+12,0,276,4585922
12-002,YA,A,278,4,variable,5,2,3,1,5,4403,657,106,0,0,0,4,3,1,2,1,2,5,2,1.6499E+12,1.6499E+12,1.6499E+12,1.6499E+12,1.6499E+12,1.6499E+12,1.6499E+12,1.65E+12,0,277,4595948
12-002,YA,A,279,4,variable,5,2,3,1,7,4438,646,207,0,0,0,3,4,1,2,1,2,7,1,1.6499E+12,1.6499E+12,1.6499E+12,1.6499E+12,1.6499E+12,1.6499E+12,1.6499E+12,1.65E+12,0,278,4606376
12-002,YA,A,280,4,variable,1,2,4,2,1,4439,739,292,0,0,0,4,3,1,2,1,2,5,1,1.6499E+12,1.6499E+12,1.6499E+12,1.6499E+12,1.6499E+12,1.6499E+12,1.6499E+12,1.65E+12,0,279,4615594
12-002,YA,A,281,4,variable,5,2,3,1,5,4464,743,41,0,0,0,4,3,1,2,1,2,5,1,1.6499E+12,1.6499E+12,1.6499E+12,1.6499E+12,1.6499E+12,1.6499E+12,1.6499E+12,1.65E+12,0,280,4625617
12-002,YA,A,282,4,variable,1,1,1,2,3,4467,953,379,0,0,0,1,2,2,1,1,2,6,3,1.6499E+12,1.6499E+12,1.6499E+12,1.6499E+12,1.6499E+12,1.6499E+12,1.6499E+12,1.65E+12,0,281,4635238
12-002,YA,A,283,4,variable,1,1,2,1,5,4472,604,439,0,0,0,2,1,2,1,1,2,5,0,1.6499E+12,1.6499E+12,1.6499E+12,1.6499E+12,1.6499E+12,1.6499E+12,1.6499E+12,1.65E+12,0,282,4645261
12-002,YA,A,284,4,variable,1,1,2,1,5,4477,1267,524,0,0,0,1,2,2,1,1,2,5,2,1.6499E+12,1.6499E+12,1.6499E+12,1.6499E+12,1.6499E+12,1.6499E+12,1.6499E+12,1.65E+12,0,283,4655286
12-002,YA,A,285,4,variable,5,1,2,1,6,4507,587,31,0,0,0,1,2,2,1,1,2,6,4,1.6499E+12,1.6499E+12,1.6499E+12,1.6499E+12,1.6499E+12,1.6499E+12,1.6499E+12,1.65E+12,0,284,4665511
12-002,YA,A,286,4,variable,5,1,2,1,8,4547,571,21,0,0,0,1,2,2,1,1,2,8,7,1.6499E+12,1.6499E+12,1.6499E+12,1.6499E+12,1.6499E+12,1.6499E+12,1.6499E+12,1.65E+12,0,285,4676138
12-002,YA,A,287,4,variable,5,1,2,1,8,4587,823,361,0,0,0,2,1,2,1,1,2,8,8,1.6499E+12,1.6499E+12,1.6499E+12,1.6499E+12,1.6499E+12,1.6499E+12,1.6499E+12,1.65E+12,0,286,4686767
12-002,YA,A,288,4,variable,5,2,3,1,8,4627,899,711,0,0,0,4,3,2,1,1,2,8,9,1.6499E+12,1.6499E+12,1.6499E+12,1.6499E+12,1.6499E+12,1.6499E+12,1.6499E+12,1.65E+12,0,287,4697391
12-002,YA,A,289,4,variable,1,2,3,1,6,4633,564,295,0,0,0,4,3,2,1,1,2,6,9,1.6499E+12,1.6499E+12,1.6499E+12,1.6499E+12,1.6499E+12,1.6499E+12,1.6499E+12,1.65E+12,0,288,4707611
12-002,YA,A,290,4,variable,1,1,2,1,3,4636,1030,601,0,0,0,2,1,2,1,1,2,3,8,1.6499E+12,1.6499E+12,1.6499E+12,1.6499E+12,1.6499E+12,1.6499E+12,1.6499E+12,1.65E+12,0,289,4717231
12-002,YA,A,291,4,variable,1,1,1,2,6,4642,507,277,0,0,0,2,1,2,1,1,2,4,6,1.6499E+12,1.6499E+12,1.6499E+12,1.6499E+12,1.6499E+12,1.6499E+12,1.6499E+12,1.65E+12,0,290,4727455
12-002,YA,A,292,4,variable,1,2,4,2,8,4650,794,413,0,0,0,4,3,2,1,1,2,5,8,1.6499E+12,1.6499E+12,1.6499E+12,1.6499E+12,1.6499E+12,1.6499E+12,1.6499E+12,1.65E+12,0,291,4738082
12-002,YA,A,293,4,variable,5,1,1,2,8,4690,665,427,0,0,0,1,2,2,1,1,2,3,8,1.6499E+12,1.6499E+12,1.6499E+12,1.6499E+12,1.6499E+12,1.6499E+12,1.6499E+12,1.65E+12,0,292,4748708
12-002,YA,A,294,4,variable,1,2,4,2,7,4697,614,362,0,0,0,3,4,2,1,1,2,3,7,1.6499E+12,1.6499E+12,1.6499E+12,1.6499E+12,1.6499E+12,1.6499E+12,1.6499E+12,1.65E+12,0,293,4759129
12-002,YA,A,295,4,variable,5,2,4,2,8,4737,889,476,0,0,0,3,4,2,1,1,2,1,8,1.6499E+12,1.6499E+12,1.6499E+12,1.6499E+12,1.6499E+12,1.6499E+12,1.6499E+12,1.65E+12,0,294,4769754
12-002,YA,A,296,4,variable,1,1,1,2,9,4746,708,519,0,0,0,1,2,2,1,2,1,3,9,1.6499E+12,1.6499E+12,1.6499E+12,1.6499E+12,1.6499E+12,1.6499E+12,1.6499E+12,1.65E+12,0,295,4780587
12-002,YA,A,297,4,variable,5,1,1,2,8,4786,552,362,0,0,0,2,1,2,1,2,1,0,8,1.6499E+12,1.6499E+12,1.6499E+12,1.6499E+12,1.6499E+12,1.6499E+12,1.6499E+12,1.65E+12,0,296,4791213
12-002,YA,A,298,4,variable,1,1,1,2,9,4795,798,401,0,0,0,1,2,2,1,2,1,2,9,1.6499E+12,1.6499E+12,1.6499E+12,1.6499E+12,1.6499E+12,1.6499E+12,1.6499E+12,1.65E+12,0,297,4802039
12-002,YA,A,299,4,variable,5,2,4,1,3,4810,883,604,0,0,0,4,3,2,1,2,1,3,7,1.6499E+12,1.6499E+12,1.6499E+12,1.6499E+12,1.6499E+12,1.6499E+12,1.6499E+12,1.65E+12,0,298,4811662
12-002,YA,A,300,4,variable,1,1,1,2,0,4810,843,-1,0,1,1,2,1,2,1,2,1,1,5,1.6499E+12,1.6499E+12,1.6499E+12,1.6499E+12,1.6499E+12,0,0,1.65E+12,0,299,4820178
12-002,YA,A,301,4,variable,1,2,3,2,1,4811,669,416,0,0,0,3,4,2,1,2,1,2,1,1.6499E+12,1.6499E+12,1.6499E+12,1.6499E+12,1.6499E+12,1.6499E+12,1.6499E+12,1.65E+12,0,300,4829399
12-002,YA,A,302,4,variable,5,2,4,2,1,4816,1025,380,0,0,0,3,4,2,1,1,2,2,1,1.6499E+12,1.6499E+12,1.6499E+12,1.6499E+12,1.6499E+12,1.6499E+12,1.6499E+12,1.65E+12,0,301,4838618
12-002,YA,A,303,4,variable,1,2,3,1,3,4819,680,322,0,0,0,3,4,2,1,1,2,3,0,1.6499E+12,1.6499E+12,1.6499E+12,1.6499E+12,1.6499E+12,1.6499E+12,1.6499E+12,1.65E+12,0,302,4848241
12-002,YA,A,304,4,variable,1,2,3,1,3,4822,687,321,0,0,0,3,4,2,1,1,2,3,1,1.6499E+12,1.6499E+12,1.6499E+12,1.6499E+12,1.6499E+12,1.6499E+12,1.6499E+12,1.65E+12,0,303,4857864
12-002,YA,A,305,4,variable,1,1,1,2,1,4823,650,380,0,0,0,2,1,2,1,1,2,3,1,1.6499E+12,1.6499E+12,1.6499E+12,1.6499E+12,1.6499E+12,1.6499E+12,1.6499E+12,1.65E+12,0,304,4867082
12-002,YA,A,306,4,variable,1,1,2,1,3,4826,584,323,0,0,0,1,2,2,1,1,2,3,3,1.6499E+12,1.6499E+12,1.6499E+12,1.6499E+12,1.6499E+12,1.6499E+12,1.6499E+12,1.65E+12,0,305,4876701
12-002,YA,A,307,4,variable,1,1,2,1,6,4832,611,510,0,0,0,1,2,2,1,1,2,6,6,1.6499E+12,1.6499E+12,1.6499E+12,1.6499E+12,1.6499E+12,1.6499E+12,1.6499E+12,1.65E+12,0,306,4886929
12-002,YA,A,308,4,variable,5,2,3,1,8,4872,679,410,0,0,0,4,3,2,1,1,2,8,5,1.6499E+12,1.6499E+12,1.6499E+12,1.6499E+12,1.6499E+12,1.6499E+12,1.6499E+12,1.65E+12,0,307,4897559
12-002,YA,A,309,4,variable,1,1,2,1,8,4880,732,406,0,0,0,2,1,2,1,2,1,8,8,1.6499E+12,1.6499E+12,1.6499E+12,1.6499E+12,1.6499E+12,1.6499E+12,1.6499E+12,1.65E+12,0,308,4908183
12-002,YA,A,310,4,variable,1,2,3,2,7,4887,522,315,0,0,0,3,4,2,1,2,1,7,7,1.6499E+12,1.6499E+12,1.6499E+12,1.6499E+12,1.6499E+12,1.6499E+12,1.6499E+12,1.65E+12,0,309,4918611
12-002,YA,A,311,4,variable,5,1,1,2,7,4922,827,679,0,0,0,2,1,2,1,2,1,8,7,1.6499E+12,1.6499E+12,1.6499E+12,1.6499E+12,1.6499E+12,1.6499E+12,1.6499E+12,1.65E+12,0,310,4929038
12-002,YA,A,312,4,variable,1,2,3,2,8,4930,684,431,0,0,0,3,4,2,1,2,1,8,8,1.6499E+12,1.6499E+12,1.6499E+12,1.6499E+12,1.6499E+12,1.6499E+12,1.6499E+12,1.65E+12,0,311,4939665
12-002,YA,A,313,4,variable,1,2,3,2,9,4939,552,316,0,0,0,4,3,2,1,2,1,8,9,1.6499E+12,1.6499E+12,1.6499E+12,1.6499E+12,1.6499E+12,1.6499E+12,1.6499E+12,1.65E+12,0,312,4950494
12-002,YA,A,314,4,variable,5,2,3,2,8,4979,451,455,0,0,0,3,4,2,1,2,1,8,8,1.6499E+12,1.6499E+12,1.6499E+12,1.6499E+12,1.6499E+12,1.6499E+12,1.6499E+12,1.65E+12,0,313,4961119
12-002,YA,A,315,4,variable,5,2,3,2,6,5009,704,464,0,0,0,4,3,2,1,2,1,8,6,1.6499E+12,1.6499E+12,1.6499E+12,1.6499E+12,1.6499E+12,1.6499E+12,1.6499E+12,1.65E+12,0,314,4971349
12-002,YA,A,316,4,variable,1,2,3,2,3,5012,452,421,0,0,0,4,3,2,1,2,1,7,3,1.6499E+12,1.6499E+12,1.6499E+12,1.6499E+12,1.6499E+12,1.6499E+12,1.6499E+12,1.65E+12,0,315,4980971
12-002,YA,A,317,4,variable,1,1,2,1,4,5016,646,313,0,0,0,2,1,2,1,2,1,4,4,1.6499E+12,1.6499E+12,1.6499E+12,1.6499E+12,1.6499E+12,1.6499E+12,1.6499E+12,1.65E+12,0,316,4990793
12-002,YA,A,318,4,variable,5,2,4,1,5,5041,857,516,0,0,0,3,4,2,1,2,1,5,2,1.6499E+12,1.6499E+12,1.6499E+12,1.6499E+12,1.6499E+12,1.6499E+12,1.6499E+12,1.65E+12,0,317,5000814
12-002,YA,A,319,4,variable,1,2,4,1,3,5044,514,428,0,0,0,4,3,2,1,2,1,3,0,1.6499E+12,1.6499E+12,1.6499E+12,1.6499E+12,1.6499E+12,1.6499E+12,1.6499E+12,1.65E+12,0,318,5010437
12-002,YA,A,320,4,variable,1,2,3,2,0,5044,923,445,0,0,0,4,3,2,1,2,1,1,0,1.6499E+12,1.6499E+12,1.6499E+12,1.6499E+12,1.6499E+12,1.6499E+12,1.6499E+12,1.65E+12,0,319,5019455
12-001,YA,A,1,1,stable,1,2,4,2,2,2,12446,3750,0,0,0,4,3,1,2,1,2,9,2,0,0,1.6499E+12,1.6499E+12,1.6499E+12,1.6499E+12,1.6499E+12,1.65E+12,1,0,657381
12-001,YA,A,2,1,stable,1,1,1,1,7,9,3441,1805,0,0,0,2,1,1,2,1,2,7,1,0,0,1.6499E+12,1.6499E+12,1.6499E+12,1.6499E+12,1.6499E+12,1.65E+12,1,1,668060
12-001,YA,A,3,1,stable,1,1,1,1,4,13,1859,1877,0,0,0,1,2,1,2,1,2,4,1,0,0,1.6499E+12,1.6499E+12,1.6499E+12,1.6499E+12,1.6499E+12,1.65E+12,1,2,676624
12-001,YA,A,4,1,stable,1,2,4,2,2,15,1904,1286,0,0,0,3,4,1,2,1,2,0,2,0,0,1.6499E+12,1.6499E+12,1.6499E+12,1.6499E+12,1.6499E+12,1.65E+12,1,3,684239
12-001,YA,A,5,1,stable,1,1,2,2,1,16,2808,791,0,0,0,2,1,1,2,1,2,1,1,0,0,1.6499E+12,1.6499E+12,1.6499E+12,1.6499E+12,1.6499E+12,1.65E+12,1,4,692059
12-001,YA,A,6,1,stable,1,2,4,2,1,17,924,758,0,0,0,4,3,1,2,1,2,4,1,0,0,1.6499E+12,1.6499E+12,1.6499E+12,1.6499E+12,1.6499E+12,1.65E+12,1,5,697963
12-001,YA,A,7,1,stable,1,1,1,1,6,23,2268,606,0,0,0,2,1,1,2,1,2,6,2,0,0,1.6499E+12,1.6499E+12,1.6499E+12,1.6499E+12,1.6499E+12,1.65E+12,1,6,706066
12-001,YA,A,8,1,stable,1,1,1,1,8,31,1037,126,0,0,0,1,2,1,2,1,2,8,2,0,0,1.6499E+12,1.6499E+12,1.6499E+12,1.6499E+12,1.6499E+12,1.65E+12,1,7,712864
12-001,YA,A,9,1,stable,1,2,3,1,8,39,1841,527,0,0,0,4,3,1,2,1,2,8,2,0,0,1.6499E+12,1.6499E+12,1.6499E+12,1.6499E+12,1.6499E+12,1.65E+12,1,8,720862
12-001,YA,A,10,1,stable,1,2,3,1,4,43,938,438,0,0,0,4,3,1,2,1,2,4,3,0,0,1.6499E+12,1.6499E+12,1.6499E+12,1.6499E+12,1.6499E+12,1.65E+12,1,9,727063
12-001,YA,A,11,1,stable,1,1,1,1,5,48,745,622,0,0,0,2,1,1,2,1,2,5,2,0,0,1.6499E+12,1.6499E+12,1.6499E+12,1.6499E+12,1.6499E+12,1.65E+12,1,10,733458
12-001,YA,A,12,1,stable,1,1,1,1,8,56,670,648,0,0,0,2,1,1,2,1,2,8,3,0,0,1.6499E+12,1.6499E+12,1.6499E+12,1.6499E+12,1.6499E+12,1.65E+12,1,11,740404
12-001,YA,A,13,1,stable,1,2,3,1,6,62,1075,479,0,0,0,3,4,1,2,1,2,6,1,0,0,1.6499E+12,1.6499E+12,1.6499E+12,1.6499E+12,1.6499E+12,1.65E+12,1,12,747185
12-001,YA,A,14,1,stable,1,2,3,1,7,69,999,711,0,0,0,4,3,1,2,1,2,7,2,0,0,1.6499E+12,1.6499E+12,1.6499E+12,1.6499E+12,1.6499E+12,1.65E+12,1,13,754325
12-001,YA,A,15,1,stable,1,2,3,1,6,75,907,583,0,0,0,3,4,1,2,1,2,6,5,0,0,1.6499E+12,1.6499E+12,1.6499E+12,1.6499E+12,1.6499E+12,1.65E+12,1,14,761044
12-001,YA,A,16,1,stable,1,2,3,1,8,83,979,830,0,0,0,4,3,1,2,1,2,8,4,0,0,1.6499E+12,1.6499E+12,1.6499E+12,1.6499E+12,1.6499E+12,1.65E+12,1,15,768484
12-001,YA,A,17,1,stable,1,1,1,1,9,92,988,910,0,0,0,2,1,1,2,1,2,9,5,0,0,1.6499E+12,1.6499E+12,1.6499E+12,1.6499E+12,1.6499E+12,1.65E+12,1,16,776211
12-001,YA,A,18,1,stable,1,2,3,1,7,99,828,14,0,0,0,3,4,1,2,1,2,7,7,0,0,1.6499E+12,1.6499E+12,1.6499E+12,1.6499E+12,1.6499E+12,1.65E+12,1,17,782480
12-001,YA,A,19,1,stable,1,2,3,1,6,105,679,429,0,0,0,3,4,1,2,1,2,6,6,0,0,1.6499E+12,1.6499E+12,1.6499E+12,1.6499E+12,1.6499E+12,1.65E+12,1,18,788818
12-001,YA,A,20,1,stable,1,2,3,1,5,110,644,407,0,0,0,3,4,1,2,1,2,5,2,0,0,1.6499E+12,1.6499E+12,1.6499E+12,1.6499E+12,1.6499E+12,1.65E+12,1,19,794894
12-001,YA,A,1,1,stable,5,2,4,2,2,10,1415,557,0,0,0,3,4,1,2,1,2,6,2,1.6499E+12,1.6499E+12,1.6499E+12,1.6499E+12,1.6499E+12,1.6499E+12,1.6499E+12,1.65E+12,0,0,1674971
12-001,YA,A,2,1,stable,5,1,1,1,3,25,1027,571,0,0,0,2,1,1,2,1,2,3,6,1.6499E+12,1.6499E+12,1.6499E+12,1.6499E+12,1.6499E+12,1.6499E+12,1.6499E+12,1.65E+12,0,1,1684592
12-001,YA,A,3,1,stable,5,1,1,1,2,35,1166,672,0,0,0,1,2,1,2,1,2,2,3,1.6499E+12,1.6499E+12,1.6499E+12,1.6499E+12,1.6499E+12,1.6499E+12,1.6499E+12,1.65E+12,0,2,1694008
12-001,YA,A,4,1,stable,5,1,1,1,4,55,1165,671,0,0,0,2,1,1,2,1,2,4,4,1.6499E+12,1.6499E+12,1.6499E+12,1.6499E+12,1.6499E+12,1.6499E+12,1.6499E+12,1.65E+12,0,3,1703829
12-001,YA,A,5,1,stable,1,2,3,1,4,59,1097,738,0,0,0,4,3,1,2,1,2,4,3,1.6499E+12,1.6499E+12,1.6499E+12,1.6499E+12,1.6499E+12,1.6499E+12,1.6499E+12,1.65E+12,0,4,1713650
12-001,YA,A,6,1,stable,1,1,1,1,6,65,787,407,0,0,0,1,2,1,2,1,2,6,4,1.6499E+12,1.6499E+12,1.6499E+12,1.6499E+12,1.6499E+12,1.6499E+12,1.6499E+12,1.65E+12,0,5,1723871
12-001,YA,A,7,1,stable,1,1,1,1,7,72,814,687,0,0,0,2,1,1,2,1,2,7,3,1.6499E+12,1.6499E+12,1.6499E+12,1.6499E+12,1.6499E+12,1.6499E+12,1.6499E+12,1.65E+12,0,6,1734299
12-001,YA,A,8,1,stable,5,1,1,1,5,97,650,365,0,0,0,2,1,1,2,1,2,5,3,1.6499E+12,1.6499E+12,1.6499E+12,1.6499E+12,1.6499E+12,1.6499E+12,1.6499E+12,1.65E+12,0,7,1744319
12-001,YA,A,9,1,stable,1,1,1,1,9,106,645,734,0,0,0,2,1,1,2,1,2,9,2,1.6499E+12,1.6499E+12,1.6499E+12,1.6499E+12,1.6499E+12,1.6499E+12,1.6499E+12,1.65E+12,0,8,1755150
12-001,YA,A,10,1,stable,1,1,1,1,7,113,737,387,0,0,0,1,2,1,2,1,2,7,9,1.6499E+12,1.6499E+12,1.6499E+12,1.6499E+12,1.6499E+12,1.6499E+12,1.6499E+12,1.65E+12,0,9,1765576
12-001,YA,A,11,1,stable,1,2,3,1,7,120,806,680,0,0,0,3,4,1,2,1,2,7,7,1.6499E+12,1.6499E+12,1.6499E+12,1.6499E+12,1.6499E+12,1.6499E+12,1.6499E+12,1.65E+12,0,10,1776000
12-001,YA,A,12,1,stable,1,1,1,1,8,128,677,535,0,0,0,2,1,1,2,1,2,8,6,1.6499E+12,1.6499E+12,1.6499E+12,1.6499E+12,1.6499E+12,1.6499E+12,1.6499E+12,1.65E+12,0,11,1786627
12-001,YA,A,13,1,stable,5,2,3,1,6,158,602,382,0,0,0,3,4,1,2,1,2,6,4,1.6499E+12,1.6499E+12,1.6499E+12,1.6499E+12,1.6499E+12,1.6499E+12,1.6499E+12,1.65E+12,0,12,1796848
12-001,YA,A,14,1,stable,1,1,1,1,7,165,718,513,0,0,0,2,1,1,2,1,2,7,5,1.6499E+12,1.6499E+12,1.6499E+12,1.6499E+12,1.6499E+12,1.6499E+12,1.6499E+12,1.65E+12,0,13,1807272
12-001,YA,A,15,1,stable,1,2,3,1,5,170,694,496,0,0,0,4,3,1,2,1,2,5,4,1.6499E+12,1.6499E+12,1.6499E+12,1.6499E+12,1.6499E+12,1.6499E+12,1.6499E+12,1.65E+12,0,14,1817294
12-001,YA,A,16,1,stable,1,1,1,1,2,172,792,387,0,0,0,1,2,1,2,1,2,2,6,1.6499E+12,1.6499E+12,1.6499E+12,1.6499E+12,1.6499E+12,1.6499E+12,1.6499E+12,1.65E+12,0,15,1826709
12-001,YA,A,17,1,stable,1,2,4,2,6,178,985,614,0,0,0,4,3,1,2,1,2,1,6,1.6499E+12,1.6499E+12,1.6499E+12,1.6499E+12,1.6499E+12,1.6499E+12,1.6499E+12,1.65E+12,0,16,1836929
12-001,YA,A,18,1,stable,5,1,2,2,6,208,781,447,0,0,0,2,1,1,2,1,2,1,6,1.6499E+12,1.6499E+12,1.6499E+12,1.6499E+12,1.6499E+12,1.6499E+12,1.6499E+12,1.65E+12,0,17,1847152
12-001,YA,A,19,1,stable,1,2,4,2,6,214,894,432,0,0,0,3,4,1,2,1,2,1,6,1.6499E+12,1.6499E+12,1.6499E+12,1.6499E+12,1.6499E+12,1.6499E+12,1.6499E+12,1.65E+12,0,18,1857374
12-001,YA,A,20,1,stable,5,1,2,2,2,224,671,1152,0,0,0,2,1,1,2,1,2,1,2,1.6499E+12,1.6499E+12,1.6499E+12,1.6499E+12,1.6499E+12,1.6499E+12,1.6499E+12,1.65E+12,0,19,1866793
12-001,YA,A,21,1,stable,5,2,3,1,5,249,813,463,0,0,0,4,3,1,2,1,2,5,2,1.6499E+12,1.6499E+12,1.6499E+12,1.6499E+12,1.6499E+12,1.6499E+12,1.6499E+12,1.65E+12,0,20,1876814
12-001,YA,A,22,1,stable,1,2,3,1,6,255,624,492,0,0,0,4,3,1,2,1,2,6,5,1.6499E+12,1.6499E+12,1.6499E+12,1.6499E+12,1.6499E+12,1.6499E+12,1.6499E+12,1.65E+12,0,21,1887034
12-001,YA,A,23,1,stable,1,1,1,1,8,263,676,463,0,0,0,1,2,1,2,1,2,8,9,1.6499E+12,1.6499E+12,1.6499E+12,1.6499E+12,1.6499E+12,1.6499E+12,1.6499E+12,1.65E+12,0,22,1897659
12-001,YA,A,24,1,stable,5,2,3,1,7,298,771,431,0,0,0,3,4,1,2,1,2,7,4,1.6499E+12,1.6499E+12,1.6499E+12,1.6499E+12,1.6499E+12,1.6499E+12,1.6499E+12,1.65E+12,0,23,1908082
12-001,YA,A,25,1,stable,5,2,3,1,8,338,716,486,0,0,0,4,3,1,2,1,2,8,2,1.6499E+12,1.6499E+12,1.6499E+12,1.6499E+12,1.6499E+12,1.6499E+12,1.6499E+12,1.65E+12,0,24,1918708
12-001,YA,A,26,1,stable,5,2,3,1,0,338,786,-1,0,1,1,3,4,1,2,1,2,8,1,1.6499E+12,1.6499E+12,1.6499E+12,1.6499E+12,1.6499E+12,0,0,1.65E+12,0,25,1927223
12-001,YA,A,27,1,stable,1,1,1,1,8,346,1056,522,0,0,0,1,2,1,2,1,2,8,1,1.6499E+12,1.6499E+12,1.6499E+12,1.6499E+12,1.6499E+12,1.6499E+12,1.6499E+12,1.65E+12,0,26,1937849
12-001,YA,A,28,1,stable,1,2,3,1,4,350,541,400,0,0,0,3,4,1,2,1,2,4,2,1.6499E+12,1.6499E+12,1.6499E+12,1.6499E+12,1.6499E+12,1.6499E+12,1.6499E+12,1.65E+12,0,27,1947669
12-001,YA,A,29,1,stable,5,1,1,1,8,390,760,346,0,0,0,2,1,1,2,1,2,8,5,1.6499E+12,1.6499E+12,1.6499E+12,1.6499E+12,1.6499E+12,1.6499E+12,1.6499E+12,1.65E+12,0,28,1958296
12-001,YA,A,30,1,stable,1,1,1,1,8,398,629,696,0,0,0,1,2,1,2,1,2,8,4,1.6499E+12,1.6499E+12,1.6499E+12,1.6499E+12,1.6499E+12,1.6499E+12,1.6499E+12,1.65E+12,0,29,1968924
12-001,YA,A,31,1,stable,5,2,3,1,5,423,634,442,0,0,0,3,4,1,2,1,2,5,6,1.6499E+12,1.6499E+12,1.6499E+12,1.6499E+12,1.6499E+12,1.6499E+12,1.6499E+12,1.65E+12,0,30,1978949
12-001,YA,A,32,1,stable,5,2,3,1,0,423,611,580,0,0,0,4,3,1,2,1,2,0,4,1.6499E+12,1.6499E+12,1.6499E+12,1.6499E+12,1.6499E+12,1.6499E+12,1.6499E+12,1.65E+12,0,31,1987962
12-001,YA,A,33,1,stable,5,1,2,2,3,438,1036,333,0,0,0,2,1,1,2,1,2,5,3,1.6499E+12,1.6499E+12,1.6499E+12,1.6499E+12,1.6499E+12,1.6499E+12,1.6499E+12,1.65E+12,0,32,1997581
12-001,YA,A,34,1,stable,1,1,2,2,3,441,632,395,0,0,0,2,1,1,2,1,2,6,3,1.6499E+12,1.6499E+12,1.6499E+12,1.6499E+12,1.6499E+12,1.6499E+12,1.6499E+12,1.65E+12,0,33,2007200
12-001,YA,A,35,1,stable,5,2,4,2,2,451,653,296,0,0,0,3,4,1,2,1,2,8,2,1.6499E+12,1.6499E+12,1.6499E+12,1.6499E+12,1.6499E+12,1.6499E+12,1.6499E+12,1.65E+12,0,34,2016616
12-001,YA,A,36,1,stable,1,2,3,1,8,459,582,353,0,0,0,3,4,1,2,1,2,8,2,1.6499E+12,1.6499E+12,1.6499E+12,1.6499E+12,1.6499E+12,1.6499E+12,1.6499E+12,1.65E+12,0,35,2027241
12-001,YA,A,37,1,stable,5,2,3,1,5,484,748,316,0,0,0,4,3,1,2,1,2,5,2,1.6499E+12,1.6499E+12,1.6499E+12,1.6499E+12,1.6499E+12,1.6499E+12,1.6499E+12,1.65E+12,0,36,2037264
12-001,YA,A,38,1,stable,5,1,1,1,5,509,1093,313,0,0,0,1,2,1,2,1,2,5,7,1.6499E+12,1.6499E+12,1.6499E+12,1.6499E+12,1.6499E+12,1.6499E+12,1.6499E+12,1.65E+12,0,37,2047284
12-001,YA,A,39,1,stable,5,2,3,1,6,539,624,393,0,0,0,3,4,1,2,1,2,6,6,1.6499E+12,1.6499E+12,1.6499E+12,1.6499E+12,1.6499E+12,1.6499E+12,1.6499E+12,1.65E+12,0,38,2057508
12-001,YA,A,40,1,stable,5,1,1,1,7,574,680,331,0,0,0,1,2,1,2,1,2,7,8,1.6499E+12,1.6499E+12,1.6499E+12,1.6499E+12,1.6499E+12,1.6499E+12,1.6499E+12,1.65E+12,0,39,2067934
12-001,YA,A,41,1,stable,1,2,3,1,6,580,703,426,0,0,0,4,3,1,2,1,2,6,7,1.6499E+12,1.6499E+12,1.6499E+12,1.6499E+12,1.6499E+12,1.6499E+12,1.6499E+12,1.65E+12,0,40,2078155
12-001,YA,A,42,1,stable,5,2,3,1,1,585,570,443,0,0,0,3,4,1,2,1,2,1,7,1.6499E+12,1.6499E+12,1.6499E+12,1.6499E+12,1.6499E+12,1.6499E+12,1.6499E+12,1.65E+12,0,41,2087371
12-001,YA,A,43,1,stable,5,2,3,1,2,595,1145,292,0,0,0,4,3,1,2,1,2,2,5,1.6499E+12,1.6499E+12,1.6499E+12,1.6499E+12,1.6499E+12,1.6499E+12,1.6499E+12,1.65E+12,0,42,2096789
12-001,YA,A,44,1,stable,1,2,4,2,7,602,856,418,0,0,0,4,3,1,2,1,2,2,7,1.6499E+12,1.6499E+12,1.6499E+12,1.6499E+12,1.6499E+12,1.6499E+12,1.6499E+12,1.65E+12,0,43,2107213
12-001,YA,A,45,1,stable,1,2,4,2,8,610,873,690,0,0,0,4,3,1,2,1,2,3,8,1.6499E+12,1.6499E+12,1.6499E+12,1.6499E+12,1.6499E+12,1.6499E+12,1.6499E+12,1.65E+12,0,44,2117841
12-001,YA,A,46,1,stable,1,2,4,2,8,618,523,430,0,0,0,3,4,1,2,1,2,7,8,1.6499E+12,1.6499E+12,1.6499E+12,1.6499E+12,1.6499E+12,1.6499E+12,1.6499E+12,1.65E+12,0,45,2128468
12-001,YA,A,47,1,stable,5,1,2,2,9,663,690,403,0,0,0,1,2,1,2,1,2,1,9,1.6499E+12,1.6499E+12,1.6499E+12,1.6499E+12,1.6499E+12,1.6499E+12,1.6499E+12,1.65E+12,0,46,2139296
12-001,YA,A,48,1,stable,5,2,4,2,9,708,805,470,0,0,0,4,3,1,2,1,2,1,9,1.6499E+12,1.6499E+12,1.6499E+12,1.6499E+12,1.6499E+12,1.6499E+12,1.6499E+12,1.65E+12,0,47,2150125
12-001,YA,A,49,1,stable,5,2,4,2,6,738,1153,581,0,0,0,4,3,1,2,1,2,1,6,1.6499E+12,1.6499E+12,1.6499E+12,1.6499E+12,1.6499E+12,1.6499E+12,1.6499E+12,1.65E+12,0,48,2160346
12-001,YA,A,50,1,stable,5,2,4,2,7,773,523,452,0,0,0,4,3,1,2,1,2,0,7,1.6499E+12,1.6499E+12,1.6499E+12,1.6499E+12,1.6499E+12,1.6499E+12,1.6499E+12,1.65E+12,0,49,2170770
12-001,YA,A,51,1,stable,5,1,2,2,6,803,731,404,0,0,0,2,1,1,2,1,2,2,6,1.6499E+12,1.6499E+12,1.6499E+12,1.6499E+12,1.6499E+12,1.6499E+12,1.6499E+12,1.65E+12,0,50,2180992
12-001,YA,A,52,1,stable,5,2,4,2,4,823,731,357,0,0,0,4,3,1,2,1,2,0,4,1.6499E+12,1.6499E+12,1.6499E+12,1.6499E+12,1.6499E+12,1.6499E+12,1.6499E+12,1.65E+12,0,51,2190814
12-001,YA,A,53,1,stable,5,2,4,2,5,848,607,362,0,0,0,3,4,1,2,1,2,4,5,1.6499E+12,1.6499E+12,1.6499E+12,1.6499E+12,1.6499E+12,1.6499E+12,1.6499E+12,1.65E+12,0,52,2200835
12-001,YA,A,54,1,stable,1,2,4,2,5,853,570,414,0,0,0,4,3,1,2,1,2,4,5,1.6499E+12,1.6499E+12,1.6499E+12,1.6499E+12,1.6499E+12,1.6499E+12,1.6499E+12,1.65E+12,0,53,2210855
12-001,YA,A,55,1,stable,5,1,2,2,0,853,877,-1,0,1,1,1,2,1,2,1,2,6,8,1.6499E+12,1.6499E+12,1.6499E+12,1.6499E+12,1.6499E+12,0,0,1.65E+12,0,54,2219370
12-001,YA,A,56,1,stable,1,1,2,2,6,859,881,653,0,0,0,2,1,1,2,1,2,5,6,1.6499E+12,1.6499E+12,1.6499E+12,1.6499E+12,1.6499E+12,1.6499E+12,1.6499E+12,1.65E+12,0,55,2229593
12-001,YA,A,57,1,stable,5,1,2,2,8,899,700,405,0,0,0,2,1,1,2,1,2,5,8,1.6499E+12,1.6499E+12,1.6499E+12,1.6499E+12,1.6499E+12,1.6499E+12,1.6499E+12,1.65E+12,0,56,2240220
12-001,YA,A,58,1,stable,1,2,4,2,8,907,751,443,0,0,0,3,4,1,2,1,2,5,8,1.6499E+12,1.6499E+12,1.6499E+12,1.6499E+12,1.6499E+12,1.6499E+12,1.6499E+12,1.65E+12,0,57,2250843
12-001,YA,A,59,1,stable,5,1,2,2,8,947,707,396,0,0,0,1,2,1,2,1,2,4,8,1.6499E+12,1.6499E+12,1.6499E+12,1.6499E+12,1.6499E+12,1.6499E+12,1.6499E+12,1.65E+12,0,58,2261467
12-001,YA,A,60,1,stable,1,2,4,2,8,955,569,388,0,0,0,3,4,1,2,1,2,3,8,1.6499E+12,1.6499E+12,1.6499E+12,1.6499E+12,1.6499E+12,1.6499E+12,1.6499E+12,1.65E+12,0,59,2272094
12-001,YA,A,61,1,stable,1,1,2,2,8,963,574,415,0,0,0,1,2,1,2,1,2,3,8,1.6499E+12,1.6499E+12,1.6499E+12,1.6499E+12,1.6499E+12,1.6499E+12,1.6499E+12,1.65E+12,0,60,2282722
12-001,YA,A,62,1,stable,1,1,2,2,9,972,658,445,0,0,0,2,1,1,2,1,2,1,9,1.6499E+12,1.6499E+12,1.6499E+12,1.6499E+12,1.6499E+12,1.6499E+12,1.6499E+12,1.65E+12,0,61,2293549
12-001,YA,A,63,1,stable,1,2,4,2,0,972,752,-1,0,1,1,3,4,1,2,1,2,4,8,1.6499E+12,1.6499E+12,1.6499E+12,1.6499E+12,1.6499E+12,0,0,1.65E+12,0,62,2302065
12-001,YA,A,64,1,stable,1,2,4,2,4,976,740,647,0,0,0,4,3,1,2,1,2,5,4,1.6499E+12,1.6499E+12,1.6499E+12,1.6499E+12,1.6499E+12,1.6499E+12,1.6499E+12,1.65E+12,0,63,2311886
12-001,YA,A,65,1,stable,1,1,2,2,5,981,791,416,0,0,0,2,1,1,2,1,2,9,5,1.6499E+12,1.6499E+12,1.6499E+12,1.6499E+12,1.6499E+12,1.6499E+12,1.6499E+12,1.65E+12,0,64,2321909
12-001,YA,A,66,1,stable,5,1,2,2,7,1016,559,370,0,0,0,1,2,1,2,1,2,8,7,1.6499E+12,1.6499E+12,1.6499E+12,1.6499E+12,1.6499E+12,1.6499E+12,1.6499E+12,1.65E+12,0,65,2332334
12-001,YA,A,67,1,stable,1,2,4,2,8,1024,671,896,0,0,0,3,4,1,2,1,2,8,8,1.6499E+12,1.6499E+12,1.6499E+12,1.6499E+12,1.6499E+12,1.6499E+12,1.6499E+12,1.65E+12,0,66,2342964
12-001,YA,A,68,1,stable,1,2,4,2,8,1032,520,370,0,0,0,4,3,1,2,1,2,7,8,1.6499E+12,1.6499E+12,1.6499E+12,1.6499E+12,1.6499E+12,1.6499E+12,1.6499E+12,1.65E+12,0,67,2353591
12-001,YA,A,69,1,stable,5,2,4,2,8,1072,638,401,0,0,0,3,4,1,2,1,2,9,8,1.6499E+12,1.6499E+12,1.6499E+12,1.6499E+12,1.6499E+12,1.6499E+12,1.6499E+12,1.65E+12,0,68,2364217
12-001,YA,A,70,1,stable,5,2,4,2,8,1112,828,616,0,0,0,4,3,1,2,1,2,8,8,1.6499E+12,1.6499E+12,1.6499E+12,1.6499E+12,1.6499E+12,1.6499E+12,1.6499E+12,1.65E+12,0,69,2374840
12-001,YA,A,71,1,stable,1,1,2,2,8,1120,742,417,0,0,0,1,2,1,2,1,2,6,8,1.6499E+12,1.6499E+12,1.6499E+12,1.6499E+12,1.6499E+12,1.6499E+12,1.6499E+12,1.65E+12,0,70,2385464
12-001,YA,A,72,1,stable,1,2,4,2,6,1126,597,575,0,0,0,3,4,1,2,1,2,7,6,1.6499E+12,1.6499E+12,1.6499E+12,1.6499E+12,1.6499E+12,1.6499E+12,1.6499E+12,1.65E+12,0,71,2395687
12-001,YA,A,73,1,stable,1,1,2,2,5,1131,831,511,0,0,0,2,1,1,2,1,2,6,5,1.6499E+12,1.6499E+12,1.6499E+12,1.6499E+12,1.6499E+12,1.6499E+12,1.6499E+12,1.65E+12,0,72,2405709
12-001,YA,A,74,1,stable,1,1,2,2,5,1136,631,449,0,0,0,1,2,1,2,1,2,2,5,1.6499E+12,1.6499E+12,1.6499E+12,1.6499E+12,1.6499E+12,1.6499E+12,1.6499E+12,1.65E+12,0,73,2415733
12-001,YA,A,75,1,stable,5,1,2,2,6,1166,655,464,0,0,0,1,2,1,2,1,2,1,6,1.6499E+12,1.6499E+12,1.6499E+12,1.6499E+12,1.6499E+12,1.6499E+12,1.6499E+12,1.65E+12,0,74,2425958
12-001,YA,A,76,1,stable,5,1,2,2,8,1206,1022,1105,0,0,0,1,2,1,2,1,2,1,8,1.6499E+12,1.6499E+12,1.6499E+12,1.6499E+12,1.6499E+12,1.6499E+12,1.6499E+12,1.65E+12,0,75,2436582
12-001,YA,A,77,1,stable,5,1,2,2,7,1241,766,576,0,0,0,1,2,1,2,1,2,2,7,1.6499E+12,1.6499E+12,1.6499E+12,1.6499E+12,1.6499E+12,1.6499E+12,1.6499E+12,1.65E+12,0,76,2447006
12-001,YA,A,78,1,stable,1,1,2,2,6,1247,727,456,0,0,0,2,1,1,2,1,2,0,6,1.6499E+12,1.6499E+12,1.6499E+12,1.6499E+12,1.6499E+12,1.6499E+12,1.6499E+12,1.65E+12,0,77,2457233
12-001,YA,A,79,1,stable,1,1,2,2,2,1249,531,438,0,0,0,1,2,1,2,1,2,3,2,1.6499E+12,1.6499E+12,1.6499E+12,1.6499E+12,1.6499E+12,1.6499E+12,1.6499E+12,1.65E+12,0,78,2466651
12-001,YA,A,80,1,stable,5,1,1,1,6,1279,1026,389,0,0,0,2,1,1,2,1,2,6,3,1.6499E+12,1.6499E+12,1.6499E+12,1.6499E+12,1.6499E+12,1.6499E+12,1.6499E+12,1.65E+12,0,79,2476873
12-001,YA,A,21,2,variable,1,2,3,1,2,112,2710,895,0,0,0,3,4,1,2,1,2,2,4,0,0,1.6499E+12,1.6499E+12,1.6499E+12,1.6499E+12,1.6499E+12,1.65E+12,1,20,864525
12-001,YA,A,22,2,variable,1,2,4,2,5,117,10762,726,0,0,0,3,4,1,2,1,2,1,5,0,0,1.6499E+12,1.6499E+12,1.6499E+12,1.6499E+12,1.6499E+12,1.65E+12,1,21,881040
12-001,YA,A,23,2,variable,1,2,4,2,7,124,1336,614,0,0,0,3,4,1,2,1,2,1,7,0,0,1.6499E+12,1.6499E+12,1.6499E+12,1.6499E+12,1.6499E+12,1.65E+12,1,22,888418
12-001,YA,A,24,2,variable,1,2,4,2,9,133,1638,520,0,0,0,4,3,1,2,1,2,1,9,0,0,1.6499E+12,1.6499E+12,1.6499E+12,1.6499E+12,1.6499E+12,1.65E+12,1,23,896407
12-001,YA,A,25,2,variable,1,2,4,2,9,142,1183,470,0,0,0,3,4,1,2,1,2,1,9,0,0,1.6499E+12,1.6499E+12,1.6499E+12,1.6499E+12,1.6499E+12,1.65E+12,1,24,903892
12-001,YA,A,26,2,variable,1,1,2,2,8,150,3260,614,0,0,0,1,2,1,2,1,2,2,8,0,0,1.6499E+12,1.6499E+12,1.6499E+12,1.6499E+12,1.6499E+12,1.65E+12,1,25,913395
12-001,YA,A,27,2,variable,1,2,4,2,8,158,940,374,0,0,0,4,3,1,2,1,2,1,8,0,0,1.6499E+12,1.6499E+12,1.6499E+12,1.6499E+12,1.6499E+12,1.65E+12,1,26,920340
12-001,YA,A,28,2,variable,1,2,4,2,7,165,964,429,0,0,0,4,3,1,2,1,2,0,7,0,0,1.6499E+12,1.6499E+12,1.6499E+12,1.6499E+12,1.6499E+12,1.65E+12,1,27,927163
12-001,YA,A,29,2,variable,1,1,2,2,8,173,1180,567,0,0,0,1,2,1,2,1,2,0,8,0,0,1.6499E+12,1.6499E+12,1.6499E+12,1.6499E+12,1.6499E+12,1.65E+12,1,28,934539
12-001,YA,A,30,2,variable,1,2,4,2,7,180,772,414,0,0,0,4,3,1,2,1,2,1,7,0,0,1.6499E+12,1.6499E+12,1.6499E+12,1.6499E+12,1.6499E+12,1.65E+12,1,29,941153
12-001,YA,A,31,2,variable,1,2,4,1,3,183,662,374,0,0,0,4,3,2,1,2,1,3,9,0,0,1.6499E+12,1.6499E+12,1.6499E+12,1.6499E+12,1.6499E+12,1.65E+12,1,30,946813
12-001,YA,A,32,2,variable,1,2,3,2,5,188,1186,639,0,0,0,4,3,2,1,2,1,3,5,0,0,1.6499E+12,1.6499E+12,1.6499E+12,1.6499E+12,1.6499E+12,1.65E+12,1,31,953665
12-001,YA,A,33,2,variable,1,1,1,2,2,190,822,935,0,0,0,2,1,2,1,2,1,2,2,0,0,1.6499E+12,1.6499E+12,1.6499E+12,1.6499E+12,1.6499E+12,1.65E+12,1,32,959843
12-001,YA,A,34,2,variable,1,2,3,2,0,190,2595,807,0,0,0,3,4,2,1,2,1,5,0,0,0,1.6499E+12,1.6499E+12,1.6499E+12,1.6499E+12,1.6499E+12,1.65E+12,1,33,967266
12-001,YA,A,35,2,variable,1,1,2,1,8,198,1957,454,0,0,0,1,2,2,1,2,1,8,0,0,0,1.6499E+12,1.6499E+12,1.6499E+12,1.6499E+12,1.6499E+12,1.65E+12,1,34,975305
12-001,YA,A,36,2,variable,1,2,4,1,6,204,693,392,0,0,0,4,3,2,1,2,1,6,2,0,0,1.6499E+12,1.6499E+12,1.6499E+12,1.6499E+12,1.6499E+12,1.65E+12,1,35,981616
12-001,YA,A,37,2,variable,1,2,4,1,7,211,887,440,0,0,0,3,4,2,1,2,1,7,3,0,0,1.6499E+12,1.6499E+12,1.6499E+12,1.6499E+12,1.6499E+12,1.65E+12,1,36,988371
12-001,YA,A,38,2,variable,1,2,4,1,5,216,996,360,0,0,0,4,3,2,1,2,1,5,5,0,0,1.6499E+12,1.6499E+12,1.6499E+12,1.6499E+12,1.6499E+12,1.65E+12,1,37,994752
12-001,YA,A,39,2,variable,1,2,4,1,7,223,751,392,0,0,0,4,3,2,1,2,1,7,3,0,0,1.6499E+12,1.6499E+12,1.6499E+12,1.6499E+12,1.6499E+12,1.65E+12,1,38,1001322
12-001,YA,A,40,2,variable,1,2,4,1,7,230,773,368,0,0,0,3,4,2,1,2,1,7,4,0,0,1.6499E+12,1.6499E+12,1.6499E+12,1.6499E+12,1.6499E+12,1.65E+12,1,39,1007889
12-001,YA,A,81,2,variable,1,1,-1,-1,0,1279,-1,-1,1,0,1,1,2,1,2,2,1,6,1,1.6499E+12,1.6499E+12,1.6499E+12,0,0,0,0,1.65E+12,0,80,2500792
12-001,YA,A,82,2,variable,1,1,1,1,8,1287,901,720,0,0,0,2,1,1,2,2,1,8,1,1.6499E+12,1.6499E+12,1.6499E+12,1.6499E+12,1.6499E+12,1.6499E+12,1.6499E+12,1.65E+12,0,81,2511417
12-001,YA,A,83,2,variable,1,2,3,2,4,1291,1468,1367,0,0,0,3,4,1,2,2,1,6,4,1.6499E+12,1.6499E+12,1.6499E+12,1.6499E+12,1.6499E+12,1.6499E+12,1.6499E+12,1.65E+12,0,82,2521235
12-001,YA,A,84,2,variable,5,1,-1,-1,0,1291,-1,-1,1,0,1,2,1,1,2,2,1,9,2,1.6499E+12,1.6499E+12,1.6499E+12,0,0,0,0,1.65E+12,0,83,2527741
12-001,YA,A,85,2,variable,1,2,3,2,4,1295,664,570,0,0,0,3,4,1,2,2,1,7,4,1.6499E+12,1.6499E+12,1.6499E+12,1.6499E+12,1.6499E+12,1.6499E+12,1.6499E+12,1.65E+12,0,84,2537559
12-001,YA,A,86,2,variable,1,1,-1,-1,0,1295,-1,-1,1,0,1,2,1,1,2,2,1,9,7,1.6499E+12,1.6499E+12,1.6499E+12,0,0,0,0,1.65E+12,0,85,2544067
12-001,YA,A,87,2,variable,5,1,2,2,7,1330,650,405,0,0,0,1,2,1,2,2,1,9,7,1.6499E+12,1.6499E+12,1.6499E+12,1.6499E+12,1.6499E+12,1.6499E+12,1.6499E+12,1.65E+12,0,86,2554488
12-001,YA,A,88,2,variable,1,2,4,1,6,1336,468,336,0,0,0,3,4,1,2,2,1,6,8,1.6499E+12,1.6499E+12,1.6499E+12,1.6499E+12,1.6499E+12,1.6499E+12,1.6499E+12,1.65E+12,0,87,2564711
12-001,YA,A,89,2,variable,5,2,4,1,3,1351,581,280,0,0,0,3,4,1,2,2,1,3,9,1.6499E+12,1.6499E+12,1.6499E+12,1.6499E+12,1.6499E+12,1.6499E+12,1.6499E+12,1.65E+12,0,88,2574330
12-001,YA,A,90,2,variable,5,2,4,1,1,1356,722,341,0,0,0,4,3,1,2,2,1,1,8,1.6499E+12,1.6499E+12,1.6499E+12,1.6499E+12,1.6499E+12,1.6499E+12,1.6499E+12,1.65E+12,0,89,2583545
12-001,YA,A,91,2,variable,5,2,3,2,6,1386,563,347,0,0,0,3,4,1,2,2,1,3,6,1.6499E+12,1.6499E+12,1.6499E+12,1.6499E+12,1.6499E+12,1.6499E+12,1.6499E+12,1.65E+12,0,90,2593771
12-001,YA,A,92,2,variable,1,2,3,2,8,1394,849,388,0,0,0,4,3,1,2,2,1,0,8,1.6499E+12,1.6499E+12,1.6499E+12,1.6499E+12,1.6499E+12,1.6499E+12,1.6499E+12,1.65E+12,0,91,2604396
12-001,YA,A,93,2,variable,1,2,3,2,7,1401,672,323,0,0,0,4,3,2,1,2,1,4,7,1.6499E+12,1.6499E+12,1.6499E+12,1.6499E+12,1.6499E+12,1.6499E+12,1.6499E+12,1.65E+12,0,92,2614821
12-001,YA,A,94,2,variable,1,1,1,2,7,1408,655,338,0,0,0,2,1,2,1,2,1,7,7,1.6499E+12,1.6499E+12,1.6499E+12,1.6499E+12,1.6499E+12,1.6499E+12,1.6499E+12,1.65E+12,0,93,2625247
12-001,YA,A,95,2,variable,5,2,3,2,8,1448,1061,375,0,0,0,4,3,2,1,2,1,9,8,1.6499E+12,1.6499E+12,1.6499E+12,1.6499E+12,1.6499E+12,1.6499E+12,1.6499E+12,1.65E+12,0,94,2635874
12-001,YA,A,96,2,variable,5,1,1,2,6,1478,665,330,0,0,0,2,1,2,1,2,1,8,6,1.6499E+12,1.6499E+12,1.6499E+12,1.6499E+12,1.6499E+12,1.6499E+12,1.6499E+12,1.65E+12,0,95,2646098
12-001,YA,A,97,2,variable,5,1,1,2,8,1518,730,294,0,0,0,1,2,2,1,2,1,8,8,1.6499E+12,1.6499E+12,1.6499E+12,1.6499E+12,1.6499E+12,1.6499E+12,1.6499E+12,1.65E+12,0,96,2656725
12-001,YA,A,98,2,variable,1,1,1,2,2,1520,592,290,0,0,0,2,1,2,1,2,1,8,2,1.6499E+12,1.6499E+12,1.6499E+12,1.6499E+12,1.6499E+12,1.6499E+12,1.6499E+12,1.65E+12,0,97,2666142
12-001,YA,A,99,2,variable,5,2,4,1,7,1555,751,321,0,0,0,3,4,2,1,2,1,7,2,1.6499E+12,1.6499E+12,1.6499E+12,1.6499E+12,1.6499E+12,1.6499E+12,1.6499E+12,1.65E+12,0,98,2676567
12-001,YA,A,100,2,variable,1,2,4,1,6,1561,926,443,0,0,0,4,3,2,1,2,1,6,1,1.6499E+12,1.6499E+12,1.6499E+12,1.6499E+12,1.6499E+12,1.6499E+12,1.6499E+12,1.65E+12,0,99,2686787
12-001,YA,A,101,2,variable,5,2,4,2,1,1566,521,613,0,0,0,4,3,2,1,1,2,7,1,1.6499E+12,1.6499E+12,1.6499E+12,1.6499E+12,1.6499E+12,1.6499E+12,1.6499E+12,1.65E+12,0,100,2696004
12-001,YA,A,102,2,variable,5,1,1,2,5,1591,705,741,0,0,0,2,1,2,1,1,2,5,5,1.6499E+12,1.6499E+12,1.6499E+12,1.6499E+12,1.6499E+12,1.6499E+12,1.6499E+12,1.65E+12,0,101,2706024
12-001,YA,A,103,2,variable,1,1,2,1,3,1594,875,445,0,0,0,2,1,2,1,1,2,3,3,1.6499E+12,1.6499E+12,1.6499E+12,1.6499E+12,1.6499E+12,1.6499E+12,1.6499E+12,1.65E+12,0,102,2715645
12-001,YA,A,104,2,variable,5,2,3,1,0,1594,800,346,0,0,0,3,4,2,1,1,2,0,3,1.6499E+12,1.6499E+12,1.6499E+12,1.6499E+12,1.6499E+12,1.6499E+12,1.6499E+12,1.65E+12,0,103,2724659
12-001,YA,A,105,2,variable,5,1,2,1,2,1604,1393,635,0,0,0,2,1,2,1,1,2,2,3,1.6499E+12,1.6499E+12,1.6499E+12,1.6499E+12,1.6499E+12,1.6499E+12,1.6499E+12,1.65E+12,0,104,2734078
12-001,YA,A,106,2,variable,5,1,2,1,2,1614,640,353,0,0,0,1,2,2,1,1,2,2,3,1.6499E+12,1.6499E+12,1.6499E+12,1.6499E+12,1.6499E+12,1.6499E+12,1.6499E+12,1.65E+12,0,105,2743497
12-001,YA,A,107,2,variable,1,2,4,1,6,1620,867,447,0,0,0,4,3,2,1,2,1,6,1,1.6499E+12,1.6499E+12,1.6499E+12,1.6499E+12,1.6499E+12,1.6499E+12,1.6499E+12,1.65E+12,0,106,2753719
12-001,YA,A,108,2,variable,1,1,2,1,7,1627,638,377,0,0,0,2,1,2,1,2,1,7,1,1.6499E+12,1.6499E+12,1.6499E+12,1.6499E+12,1.6499E+12,1.6499E+12,1.6499E+12,1.65E+12,0,107,2764145
12-001,YA,A,109,2,variable,5,1,2,1,7,1662,603,415,0,0,0,2,1,2,1,2,1,7,1,1.6499E+12,1.6499E+12,1.6499E+12,1.6499E+12,1.6499E+12,1.6499E+12,1.6499E+12,1.65E+12,0,108,2774567
12-001,YA,A,110,2,variable,1,2,4,1,6,1668,564,447,0,0,0,4,3,2,1,2,1,6,4,1.6499E+12,1.6499E+12,1.6499E+12,1.6499E+12,1.6499E+12,1.6499E+12,1.6499E+12,1.65E+12,0,109,2784791
12-001,YA,A,111,2,variable,1,1,2,1,4,1672,718,381,0,0,0,1,2,2,1,2,1,4,8,1.6499E+12,1.6499E+12,1.6499E+12,1.6499E+12,1.6499E+12,1.6499E+12,1.6499E+12,1.65E+12,0,110,2794614
12-001,YA,A,112,2,variable,5,1,2,1,7,1707,759,313,0,0,0,1,2,2,1,2,1,7,7,1.6499E+12,1.6499E+12,1.6499E+12,1.6499E+12,1.6499E+12,1.6499E+12,1.6499E+12,1.65E+12,0,111,2805041
12-001,YA,A,113,2,variable,1,1,2,1,6,1713,771,300,0,0,0,1,2,2,1,2,1,6,6,1.6499E+12,1.6499E+12,1.6499E+12,1.6499E+12,1.6499E+12,1.6499E+12,1.6499E+12,1.65E+12,0,112,2815264
12-001,YA,A,114,2,variable,1,2,4,1,6,1719,589,359,0,0,0,3,4,2,1,2,1,6,5,1.6499E+12,1.6499E+12,1.6499E+12,1.6499E+12,1.6499E+12,1.6499E+12,1.6499E+12,1.65E+12,0,113,2825486
12-001,YA,A,115,2,variable,5,1,2,1,8,1759,580,375,0,0,0,1,2,2,1,2,1,8,3,1.6499E+12,1.6499E+12,1.6499E+12,1.6499E+12,1.6499E+12,1.6499E+12,1.6499E+12,1.65E+12,0,114,2836113
12-001,YA,A,116,2,variable,1,1,2,1,7,1766,715,501,0,0,0,2,1,2,1,2,1,7,3,1.6499E+12,1.6499E+12,1.6499E+12,1.6499E+12,1.6499E+12,1.6499E+12,1.6499E+12,1.65E+12,0,115,2846538
12-001,YA,A,117,2,variable,1,2,4,1,8,1774,811,454,0,0,0,4,3,2,1,2,1,8,4,1.6499E+12,1.6499E+12,1.6499E+12,1.6499E+12,1.6499E+12,1.6499E+12,1.6499E+12,1.65E+12,0,116,2857161
12-001,YA,A,118,2,variable,1,1,2,2,4,1778,740,406,0,0,0,1,2,1,2,2,1,7,4,1.6499E+12,1.6499E+12,1.6499E+12,1.6499E+12,1.6499E+12,1.6499E+12,1.6499E+12,1.65E+12,0,117,2866981
12-001,YA,A,119,2,variable,1,2,3,2,1,1779,801,332,0,0,0,3,4,1,2,2,1,6,1,1.6499E+12,1.6499E+12,1.6499E+12,1.6499E+12,1.6499E+12,1.6499E+12,1.6499E+12,1.65E+12,0,118,2876194
12-001,YA,A,120,2,variable,1,1,2,2,1,1780,699,350,0,0,0,1,2,1,2,2,1,7,1,1.6499E+12,1.6499E+12,1.6499E+12,1.6499E+12,1.6499E+12,1.6499E+12,1.6499E+12,1.65E+12,0,119,2885409
12-001,YA,A,121,2,variable,1,2,4,1,7,1787,595,445,0,0,0,3,4,1,2,2,1,7,3,1.6499E+12,1.6499E+12,1.6499E+12,1.6499E+12,1.6499E+12,1.6499E+12,1.6499E+12,1.65E+12,0,120,2895835
12-001,YA,A,122,2,variable,5,1,2,2,3,1802,807,489,0,0,0,2,1,1,2,2,1,9,3,1.6499E+12,1.6499E+12,1.6499E+12,1.6499E+12,1.6499E+12,1.6499E+12,1.6499E+12,1.65E+12,0,121,2905457
12-001,YA,A,123,2,variable,5,2,4,1,8,1842,788,414,0,0,0,3,4,1,2,2,1,8,3,1.6499E+12,1.6499E+12,1.6499E+12,1.6499E+12,1.6499E+12,1.6499E+12,1.6499E+12,1.65E+12,0,122,2916083
12-001,YA,A,124,2,variable,5,1,2,2,4,1862,945,956,0,0,0,1,2,1,2,2,1,8,4,1.6499E+12,1.6499E+12,1.6499E+12,1.6499E+12,1.6499E+12,1.6499E+12,1.6499E+12,1.65E+12,0,123,2925901
12-001,YA,A,125,2,variable,5,1,2,2,3,1877,976,354,0,0,0,2,1,1,2,2,1,6,3,1.6499E+12,1.6499E+12,1.6499E+12,1.6499E+12,1.6499E+12,1.6499E+12,1.6499E+12,1.65E+12,0,124,2935519
12-001,YA,A,126,2,variable,5,2,4,1,7,1912,740,486,0,0,0,4,3,1,2,2,1,7,4,1.6499E+12,1.6499E+12,1.6499E+12,1.6499E+12,1.6499E+12,1.6499E+12,1.6499E+12,1.65E+12,0,125,2945946
12-001,YA,A,127,2,variable,1,1,2,2,7,1919,682,660,0,0,0,2,1,1,2,2,1,7,7,1.6499E+12,1.6499E+12,1.6499E+12,1.6499E+12,1.6499E+12,1.6499E+12,1.6499E+12,1.65E+12,0,126,2956371
12-001,YA,A,128,2,variable,5,1,2,2,6,1949,642,325,0,0,0,1,2,1,2,2,1,5,6,1.6499E+12,1.6499E+12,1.6499E+12,1.6499E+12,1.6499E+12,1.6499E+12,1.6499E+12,1.65E+12,0,127,2966591
12-001,YA,A,129,2,variable,5,1,2,2,8,1989,653,413,0,0,0,2,1,1,2,2,1,6,8,1.6499E+12,1.6499E+12,1.6499E+12,1.6499E+12,1.6499E+12,1.6499E+12,1.6499E+12,1.65E+12,0,128,2977220
12-001,YA,A,130,2,variable,5,2,4,1,7,2024,657,372,0,0,0,4,3,1,2,2,1,7,7,1.6499E+12,1.6499E+12,1.6499E+12,1.6499E+12,1.6499E+12,1.6499E+12,1.6499E+12,1.65E+12,0,129,2987645
12-001,YA,A,131,2,variable,1,1,2,2,6,2030,600,384,0,0,0,2,1,1,2,2,1,7,6,1.6499E+12,1.6499E+12,1.6499E+12,1.6499E+12,1.6499E+12,1.6499E+12,1.6499E+12,1.65E+12,0,130,2997872
12-001,YA,A,132,2,variable,5,2,4,1,8,2070,684,333,0,0,0,3,4,2,1,2,1,8,7,1.6499E+12,1.6499E+12,1.6499E+12,1.6499E+12,1.6499E+12,1.6499E+12,1.6499E+12,1.65E+12,0,131,3008499
12-001,YA,A,133,2,variable,1,2,4,1,7,2077,569,427,0,0,0,3,4,2,1,2,1,7,8,1.6499E+12,1.6499E+12,1.6499E+12,1.6499E+12,1.6499E+12,1.6499E+12,1.6499E+12,1.65E+12,0,132,3018925
12-001,YA,A,134,2,variable,1,1,2,1,7,2084,816,506,0,0,0,1,2,2,1,2,1,7,8,1.6499E+12,1.6499E+12,1.6499E+12,1.6499E+12,1.6499E+12,1.6499E+12,1.6499E+12,1.65E+12,0,133,3029351
12-001,YA,A,135,2,variable,1,2,4,1,6,2090,846,513,0,0,0,4,3,2,1,2,1,6,8,1.6499E+12,1.6499E+12,1.6499E+12,1.6499E+12,1.6499E+12,1.6499E+12,1.6499E+12,1.65E+12,0,134,3039571
12-001,YA,A,136,2,variable,1,1,2,1,5,2095,602,484,0,0,0,1,2,2,1,2,1,5,5,1.6499E+12,1.6499E+12,1.6499E+12,1.6499E+12,1.6499E+12,1.6499E+12,1.6499E+12,1.65E+12,0,135,3049594
12-001,YA,A,137,2,variable,1,1,2,1,0,2095,659,350,0,0,0,1,2,2,1,2,1,0,8,1.6499E+12,1.6499E+12,1.6499E+12,1.6499E+12,1.6499E+12,1.6499E+12,1.6499E+12,1.65E+12,0,136,3058608
12-001,YA,A,138,2,variable,1,2,3,2,7,2102,1061,343,0,0,0,4,3,2,1,2,1,1,7,1.6499E+12,1.6499E+12,1.6499E+12,1.6499E+12,1.6499E+12,1.6499E+12,1.6499E+12,1.65E+12,0,137,3069034
12-001,YA,A,139,2,variable,5,1,1,2,6,2132,819,445,0,0,0,2,1,2,1,2,1,2,6,1.6499E+12,1.6499E+12,1.6499E+12,1.6499E+12,1.6499E+12,1.6499E+12,1.6499E+12,1.65E+12,0,138,3079256
12-001,YA,A,140,2,variable,5,1,1,2,5,2157,621,551,0,0,0,2,1,2,1,2,1,0,5,1.6499E+12,1.6499E+12,1.6499E+12,1.6499E+12,1.6499E+12,1.6499E+12,1.6499E+12,1.65E+12,0,139,3089280
12-001,YA,A,141,2,variable,5,1,1,2,4,2177,767,562,0,0,0,1,2,2,1,2,1,0,4,1.6499E+12,1.6499E+12,1.6499E+12,1.6499E+12,1.6499E+12,1.6499E+12,1.6499E+12,1.65E+12,0,140,3099099
12-001,YA,A,142,2,variable,5,2,3,2,7,2212,657,602,0,0,0,4,3,2,1,2,1,1,7,1.6499E+12,1.6499E+12,1.6499E+12,1.6499E+12,1.6499E+12,1.6499E+12,1.6499E+12,1.65E+12,0,141,3109526
12-001,YA,A,143,2,variable,5,2,3,2,7,2247,607,489,0,0,0,4,3,2,1,2,1,1,7,1.6499E+12,1.6499E+12,1.6499E+12,1.6499E+12,1.6499E+12,1.6499E+12,1.6499E+12,1.65E+12,0,142,3119952
12-001,YA,A,144,2,variable,1,2,3,2,7,2254,715,654,0,0,0,3,4,2,1,2,1,2,7,1.6499E+12,1.6499E+12,1.6499E+12,1.6499E+12,1.6499E+12,1.6499E+12,1.6499E+12,1.65E+12,0,143,3130378
12-001,YA,A,145,2,variable,5,2,3,1,3,2269,657,618,0,0,0,4,3,2,1,1,2,3,5,1.6499E+12,1.6499E+12,1.6499E+12,1.6499E+12,1.6499E+12,1.6499E+12,1.6499E+12,1.65E+12,0,144,3140002
12-001,YA,A,146,2,variable,5,2,4,2,2,2279,643,413,0,0,0,3,4,2,1,1,2,4,2,1.6499E+12,1.6499E+12,1.6499E+12,1.6499E+12,1.6499E+12,1.6499E+12,1.6499E+12,1.65E+12,0,145,3149420
12-001,YA,A,147,2,variable,5,2,4,2,6,2309,809,420,0,0,0,3,4,2,1,1,2,0,6,1.6499E+12,1.6499E+12,1.6499E+12,1.6499E+12,1.6499E+12,1.6499E+12,1.6499E+12,1.65E+12,0,146,3159643
12-001,YA,A,148,2,variable,5,2,4,2,6,2339,770,598,0,0,0,4,3,2,1,1,2,4,6,1.6499E+12,1.6499E+12,1.6499E+12,1.6499E+12,1.6499E+12,1.6499E+12,1.6499E+12,1.65E+12,0,147,3169862
12-001,YA,A,149,2,variable,1,2,4,2,6,2345,615,465,0,0,0,3,4,2,1,1,2,6,6,1.6499E+12,1.6499E+12,1.6499E+12,1.6499E+12,1.6499E+12,1.6499E+12,1.6499E+12,1.65E+12,0,148,3180086
12-001,YA,A,150,2,variable,1,2,4,2,8,2353,870,504,0,0,0,4,3,2,1,1,2,2,8,1.6499E+12,1.6499E+12,1.6499E+12,1.6499E+12,1.6499E+12,1.6499E+12,1.6499E+12,1.65E+12,0,149,3190712
12-001,YA,A,151,2,variable,5,1,2,1,1,2358,940,647,0,0,0,1,2,2,1,1,2,1,8,1.6499E+12,1.6499E+12,1.6499E+12,1.6499E+12,1.6499E+12,1.6499E+12,1.6499E+12,1.65E+12,0,150,3199928
12-001,YA,A,152,2,variable,5,2,3,2,8,2398,740,712,0,0,0,3,4,2,1,2,1,0,8,1.6499E+12,1.6499E+12,1.6499E+12,1.6499E+12,1.6499E+12,1.6499E+12,1.6499E+12,1.65E+12,0,151,3210553
12-001,YA,A,153,2,variable,5,2,3,2,7,2433,627,461,0,0,0,3,4,2,1,2,1,0,7,1.6499E+12,1.6499E+12,1.6499E+12,1.6499E+12,1.6499E+12,1.6499E+12,1.6499E+12,1.65E+12,0,152,3220979
12-001,YA,A,154,2,variable,5,2,3,2,7,2468,897,635,0,0,0,4,3,2,1,2,1,3,7,1.6499E+12,1.6499E+12,1.6499E+12,1.6499E+12,1.6499E+12,1.6499E+12,1.6499E+12,1.65E+12,0,153,3231403
12-001,YA,A,155,2,variable,1,2,3,2,8,2476,722,470,0,0,0,4,3,2,1,2,1,4,8,1.6499E+12,1.6499E+12,1.6499E+12,1.6499E+12,1.6499E+12,1.6499E+12,1.6499E+12,1.65E+12,0,154,3242026
12-001,YA,A,156,2,variable,1,2,3,2,8,2484,1034,508,0,0,0,3,4,2,1,2,1,4,8,1.6499E+12,1.6499E+12,1.6499E+12,1.6499E+12,1.6499E+12,1.6499E+12,1.6499E+12,1.65E+12,0,155,3252653
12-001,YA,A,157,2,variable,1,1,1,2,8,2492,640,384,0,0,0,1,2,2,1,2,1,6,8,1.6499E+12,1.6499E+12,1.6499E+12,1.6499E+12,1.6499E+12,1.6499E+12,1.6499E+12,1.65E+12,0,156,3263283
12-001,YA,A,158,2,variable,1,1,1,2,8,2500,594,499,0,0,0,1,2,2,1,2,1,4,8,1.6499E+12,1.6499E+12,1.6499E+12,1.6499E+12,1.6499E+12,1.6499E+12,1.6499E+12,1.65E+12,0,157,3273912
12-001,YA,A,159,2,variable,5,1,1,2,5,2525,629,567,0,0,0,1,2,2,1,2,1,4,5,1.6499E+12,1.6499E+12,1.6499E+12,1.6499E+12,1.6499E+12,1.6499E+12,1.6499E+12,1.65E+12,0,158,3283935
12-001,YA,A,160,2,variable,1,1,1,2,5,2530,1014,690,0,0,0,2,1,2,1,2,1,8,5,1.6499E+12,1.6499E+12,1.6499E+12,1.6499E+12,1.6499E+12,1.6499E+12,1.6499E+12,1.65E+12,0,159,3293955
12-001,YA,A,161,3,stable,1,2,-1,-1,0,2530,-1,-1,1,0,1,4,3,2,1,2,1,6,6,1.6499E+12,1.6499E+12,1.6499E+12,0,0,0,0,1.65E+12,0,160,3317697
12-001,YA,A,162,3,stable,1,1,2,1,6,2536,579,405,0,0,0,2,1,2,1,2,1,6,7,1.6499E+12,1.6499E+12,1.6499E+12,1.6499E+12,1.6499E+12,1.6499E+12,1.6499E+12,1.65E+12,0,161,3327920
12-001,YA,A,163,3,stable,1,1,2,1,8,2544,804,390,0,0,0,1,2,2,1,2,1,8,7,1.6499E+12,1.6499E+12,1.6499E+12,1.6499E+12,1.6499E+12,1.6499E+12,1.6499E+12,1.65E+12,0,162,3338548
12-001,YA,A,164,3,stable,5,1,2,1,7,2579,906,468,0,0,0,1,2,2,1,2,1,7,4,1.6499E+12,1.6499E+12,1.6499E+12,1.6499E+12,1.6499E+12,1.6499E+12,1.6499E+12,1.65E+12,0,163,3348971
12-001,YA,A,165,3,stable,5,2,4,1,9,2624,770,411,0,0,0,4,3,2,1,2,1,9,8,1.6499E+12,1.6499E+12,1.6499E+12,1.6499E+12,1.6499E+12,1.6499E+12,1.6499E+12,1.65E+12,0,164,3359800
12-001,YA,A,166,3,stable,1,2,4,1,7,2631,651,412,0,0,0,4,3,2,1,2,1,7,5,1.6499E+12,1.6499E+12,1.6499E+12,1.6499E+12,1.6499E+12,1.6499E+12,1.6499E+12,1.65E+12,0,165,3370226
12-001,YA,A,167,3,stable,5,2,4,1,6,2661,546,477,0,0,0,4,3,2,1,2,1,6,6,1.6499E+12,1.6499E+12,1.6499E+12,1.6499E+12,1.6499E+12,1.6499E+12,1.6499E+12,1.65E+12,0,166,3380450
12-001,YA,A,168,3,stable,5,2,4,1,6,2691,715,1117,0,0,0,3,4,2,1,2,1,6,8,1.6499E+12,1.6499E+12,1.6499E+12,1.6499E+12,1.6499E+12,1.6499E+12,1.6499E+12,1.65E+12,0,167,3390673
12-001,YA,A,169,3,stable,5,2,4,1,8,2731,699,484,0,0,0,3,4,2,1,2,1,8,7,1.6499E+12,1.6499E+12,1.6499E+12,1.6499E+12,1.6499E+12,1.6499E+12,1.6499E+12,1.65E+12,0,168,3401304
12-001,YA,A,170,3,stable,1,1,2,1,5,2736,676,664,0,0,0,1,2,2,1,2,1,5,8,1.6499E+12,1.6499E+12,1.6499E+12,1.6499E+12,1.6499E+12,1.6499E+12,1.6499E+12,1.65E+12,0,169,3411327
12-001,YA,A,171,3,stable,5,2,4,1,3,2751,620,456,0,0,0,3,4,2,1,2,1,3,9,1.6499E+12,1.6499E+12,1.6499E+12,1.6499E+12,1.6499E+12,1.6499E+12,1.6499E+12,1.65E+12,0,170,3420946
12-001,YA,A,172,3,stable,1,2,3,2,8,2759,560,338,0,0,0,3,4,2,1,2,1,5,8,1.6499E+12,1.6499E+12,1.6499E+12,1.6499E+12,1.6499E+12,1.6499E+12,1.6499E+12,1.65E+12,0,171,3431576
12-001,YA,A,173,3,stable,1,1,1,2,4,2763,645,312,0,0,0,1,2,2,1,2,1,6,4,1.6499E+12,1.6499E+12,1.6499E+12,1.6499E+12,1.6499E+12,1.6499E+12,1.6499E+12,1.65E+12,0,172,3441396
12-001,YA,A,174,3,stable,5,1,1,2,2,2773,808,315,0,0,0,2,1,2,1,2,1,4,2,1.6499E+12,1.6499E+12,1.6499E+12,1.6499E+12,1.6499E+12,1.6499E+12,1.6499E+12,1.65E+12,0,173,3450814
12-001,YA,A,175,3,stable,5,1,2,1,4,2793,655,362,0,0,0,2,1,2,1,2,1,4,3,1.6499E+12,1.6499E+12,1.6499E+12,1.6499E+12,1.6499E+12,1.6499E+12,1.6499E+12,1.65E+12,0,174,3460633
12-001,YA,A,176,3,stable,5,1,2,1,4,2813,698,332,0,0,0,1,2,2,1,2,1,4,2,1.6499E+12,1.6499E+12,1.6499E+12,1.6499E+12,1.6499E+12,1.6499E+12,1.6499E+12,1.65E+12,0,175,3470455
12-001,YA,A,177,3,stable,5,1,2,1,5,2838,1485,502,0,0,0,2,1,2,1,2,1,5,4,1.6499E+12,1.6499E+12,1.6499E+12,1.6499E+12,1.6499E+12,1.6499E+12,1.6499E+12,1.65E+12,0,176,3480478
12-001,YA,A,178,3,stable,5,2,4,1,3,2853,663,290,0,0,0,4,3,2,1,2,1,3,4,1.6499E+12,1.6499E+12,1.6499E+12,1.6499E+12,1.6499E+12,1.6499E+12,1.6499E+12,1.65E+12,0,177,3490096
12-001,YA,A,179,3,stable,5,2,3,2,2,2863,604,319,0,0,0,3,4,2,1,2,1,1,2,1.6499E+12,1.6499E+12,1.6499E+12,1.6499E+12,1.6499E+12,1.6499E+12,1.6499E+12,1.65E+12,0,178,3499511
12-001,YA,A,180,3,stable,1,1,1,2,5,2868,613,302,0,0,0,2,1,2,1,2,1,1,5,1.6499E+12,1.6499E+12,1.6499E+12,1.6499E+12,1.6499E+12,1.6499E+12,1.6499E+12,1.65E+12,0,179,3509534
12-001,YA,A,181,3,stable,1,1,1,2,4,2872,652,409,0,0,0,2,1,2,1,2,1,3,4,1.6499E+12,1.6499E+12,1.6499E+12,1.6499E+12,1.6499E+12,1.6499E+12,1.6499E+12,1.65E+12,0,180,3519355
12-001,YA,A,182,3,stable,1,1,1,2,2,2874,714,355,0,0,0,1,2,2,1,2,1,5,2,1.6499E+12,1.6499E+12,1.6499E+12,1.6499E+12,1.6499E+12,1.6499E+12,1.6499E+12,1.65E+12,0,181,3528773
12-001,YA,A,183,3,stable,1,1,2,1,8,2882,766,281,0,0,0,2,1,2,1,2,1,8,2,1.6499E+12,1.6499E+12,1.6499E+12,1.6499E+12,1.6499E+12,1.6499E+12,1.6499E+12,1.65E+12,0,182,3539398
12-001,YA,A,184,3,stable,1,2,4,1,6,2888,879,346,0,0,0,3,4,2,1,2,1,6,1,1.6499E+12,1.6499E+12,1.6499E+12,1.6499E+12,1.6499E+12,1.6499E+12,1.6499E+12,1.65E+12,0,183,3549617
12-001,YA,A,185,3,stable,1,2,4,1,8,2896,691,311,0,0,0,4,3,2,1,2,1,8,1,1.6499E+12,1.6499E+12,1.6499E+12,1.6499E+12,1.6499E+12,1.6499E+12,1.6499E+12,1.65E+12,0,184,3560243
12-001,YA,A,186,3,stable,1,2,3,2,3,2899,896,563,0,0,0,3,4,2,1,2,1,7,3,1.6499E+12,1.6499E+12,1.6499E+12,1.6499E+12,1.6499E+12,1.6499E+12,1.6499E+12,1.65E+12,0,185,3569862
12-001,YA,A,187,3,stable,5,2,4,1,6,2929,614,337,0,0,0,3,4,2,1,2,1,6,2,1.6499E+12,1.6499E+12,1.6499E+12,1.6499E+12,1.6499E+12,1.6499E+12,1.6499E+12,1.65E+12,0,186,3580083
12-001,YA,A,188,3,stable,1,2,4,1,7,2936,671,457,0,0,0,3,4,2,1,2,1,7,0,1.6499E+12,1.6499E+12,1.6499E+12,1.6499E+12,1.6499E+12,1.6499E+12,1.6499E+12,1.65E+12,0,187,3590511
12-001,YA,A,189,3,stable,5,1,2,1,7,2971,659,422,0,0,0,2,1,2,1,2,1,7,1,1.6499E+12,1.6499E+12,1.6499E+12,1.6499E+12,1.6499E+12,1.6499E+12,1.6499E+12,1.65E+12,0,188,3600938
12-001,YA,A,190,3,stable,5,1,2,1,5,2996,634,373,0,0,0,2,1,2,1,2,1,5,0,1.6499E+12,1.6499E+12,1.6499E+12,1.6499E+12,1.6499E+12,1.6499E+12,1.6499E+12,1.65E+12,0,189,3610960
12-001,YA,A,191,3,stable,1,1,2,1,7,3003,572,422,0,0,0,2,1,2,1,2,1,7,0,1.6499E+12,1.6499E+12,1.6499E+12,1.6499E+12,1.6499E+12,1.6499E+12,1.6499E+12,1.65E+12,0,190,3621387
12-001,YA,A,192,3,stable,1,2,4,1,7,3010,728,352,0,0,0,3,4,2,1,2,1,7,5,1.6499E+12,1.6499E+12,1.6499E+12,1.6499E+12,1.6499E+12,1.6499E+12,1.6499E+12,1.65E+12,0,191,3631815
12-001,YA,A,193,3,stable,5,1,2,1,7,3045,597,418,0,0,0,1,2,2,1,2,1,7,3,1.6499E+12,1.6499E+12,1.6499E+12,1.6499E+12,1.6499E+12,1.6499E+12,1.6499E+12,1.65E+12,0,192,3642237
12-001,YA,A,194,3,stable,1,1,2,1,9,3054,574,407,0,0,0,1,2,2,1,2,1,9,5,1.6499E+12,1.6499E+12,1.6499E+12,1.6499E+12,1.6499E+12,1.6499E+12,1.6499E+12,1.65E+12,0,193,3653066
12-001,YA,A,195,3,stable,5,1,2,1,8,3094,579,413,0,0,0,1,2,2,1,2,1,8,8,1.6499E+12,1.6499E+12,1.6499E+12,1.6499E+12,1.6499E+12,1.6499E+12,1.6499E+12,1.65E+12,0,194,3663695
12-001,YA,A,196,3,stable,1,2,4,1,6,3100,574,414,0,0,0,3,4,2,1,2,1,6,5,1.6499E+12,1.6499E+12,1.6499E+12,1.6499E+12,1.6499E+12,1.6499E+12,1.6499E+12,1.65E+12,0,195,3673919
12-001,YA,A,197,3,stable,1,1,2,1,5,3105,684,509,0,0,0,2,1,2,1,2,1,5,4,1.6499E+12,1.6499E+12,1.6499E+12,1.6499E+12,1.6499E+12,1.6499E+12,1.6499E+12,1.65E+12,0,196,3683941
12-001,YA,A,198,3,stable,1,1,2,1,7,3112,574,1019,0,0,0,2,1,2,1,2,1,7,3,1.6499E+12,1.6499E+12,1.6499E+12,1.6499E+12,1.6499E+12,1.6499E+12,1.6499E+12,1.65E+12,0,197,3694364
