id,age_group,version,trial,block,transitions,stake,s1,choice,s2,points,score,rt1,rt2,timeout1,timeout2,timeout,stimulus_left,stimulus_right,destination1,destination2,destination3,destination4,reward1,reward2
12_001,YA,A,1,1,stable,5,2,3,1,6,30,1.8419,0.7238,0,0,0,3,4,1,2,1,2,6,2
12_001,YA,A,2,1,stable,5,1,1,1,3,45,0.9275,0.3782,0,0,0,2,1,1,2,1,2,3,6
12_001,YA,A,3,1,stable,5,1,1,1,2,55,0.883,0.3967,0,0,0,1,2,1,2,1,2,2,3
12_001,YA,A,4,1,stable,5,1,2,2,4,75,1.0938,0.425,0,0,0,2,1,1,2,1,2,4,4
12_001,YA,A,5,1,stable,1,2,3,1,4,79,1.2005,0.6421,0,0,0,4,3,1,2,1,2,4,3
12_001,YA,A,6,1,stable,1,1,2,2,4,83,1.1138,0.4437,0,0,0,1,2,1,2,1,2,6,4
12_001,YA,A,7,1,stable,1,1,2,2,3,86,1.01,0.6851,0,0,0,2,1,1,2,1,2,7,3
12_001,YA,A,8,1,stable,5,1,1,1,5,111,0.9567,0.3114,0,0,0,2,1,1,2,1,2,5,3
12_001,YA,A,9,1,stable,1,1,1,1,9,120,1.0215,0.2798,0,0,0,2,1,1,2,1,2,9,2
12_001,YA,A,10,1,stable,1,1,2,2,9,129,1.2323,0.5059,0,0,0,1,2,1,2,1,2,7,9
12_001,YA,A,11,1,stable,1,2,4,2,7,136,0.7786,0.4374,0,0,0,3,4,1,2,1,2,7,7
12_001,YA,A,12,1,stable,1,1,2,2,6,142,0.753,0.5156,0,0,0,2,1,1,2,1,2,8,6
12_001,YA,A,13,1,stable,5,2,4,2,4,162,0.7684,0.3951,0,0,0,3,4,1,2,1,2,6,4
12_001,YA,A,14,1,stable,1,1,1,1,7,169,0.9947,0.3893,0,0,0,2,1,1,2,1,2,7,5
12_001,YA,A,15,1,stable,1,2,3,1,5,174,0.9218,0.4123,0,0,0,4,3,1,2,1,2,5,4
12_001,YA,A,16,1,stable,1,1,1,1,2,176,1.0189,0.5095,0,0,0,1,2,1,2,1,2,2,6
12_001,YA,A,17,1,stable,1,2,4,2,6,182,1.0717,0.4981,0,0,0,4,3,1,2,1,2,1,6
12_001,YA,A,18,1,stable,5,1,2,2,6,212,1.0751,0.3167,0,0,0,2,1,1,2,1,2,1,6
12_001,YA,A,19,1,stable,1,2,4,2,6,218,0.9106,0.3292,0,0,0,3,4,1,2,1,2,1,6
12_001,YA,A,20,1,stable,5,1,2,2,2,228,0.8387,0.3374,0,0,0,2,1,1,2,1,2,1,2
12_001,YA,A,21,1,stable,5,2,3,1,5,253,0.6985,0.8285,0,0,0,4,3,1,2,1,2,5,2
12_001,YA,A,22,1,stable,1,2,3,1,6,259,0.803,0.2536,0,0,0,4,3,1,2,1,2,6,5
12_001,YA,A,23,1,stable,1,1,1,1,8,267,0.8104,0.5251,0,0,0,1,2,1,2,1,2,8,9
12_001,YA,A,24,1,stable,5,2,3,1,7,302,0.5605,0.275,0,0,0,3,4,1,2,1,2,7,4
12_001,YA,A,25,1,stable,5,2,3,1,8,342,0.5514,0.4181,0,0,0,4,3,1,2,1,2,8,2
12_001,YA,A,26,1,stable,5,2,3,1,8,382,0.5333,0.2946,0,0,0,3,4,1,2,1,2,8,1
12_001,YA,A,27,1,stable,1,1,2,2,1,383,0.9939,0.3805,0,0,0,1,2,1,2,1,2,8,1
12_001,YA,A,28,1,stable,1,2,3,1,4,387,0.5509,0.4414,0,0,0,3,4,1,2,1,2,4,2
12_001,YA,A,29,1,stable,5,1,1,1,8,427,1.1771,0.6838,0,0,0,2,1,1,2,1,2,8,5
12_001,YA,A,30,1,stable,1,1,1,1,8,435,0.9262,0.2972,0,0,0,1,2,1,2,1,2,8,4
12_001,YA,A,31,1,stable,5,2,3,1,5,460,0.5236,0.2864,0,0,0,3,4,1,2,1,2,5,6
12_001,YA,A,32,1,stable,5,2,4,2,4,480,0.7313,0.3973,0,0,0,4,3,1,2,1,2,0,4
12_001,YA,A,33,1,stable,5,1,2,2,3,495,0.7883,0.5588,0,0,0,2,1,1,2,1,2,5,3
12_001,YA,A,34,1,stable,1,1,1,1,6,501,1.023,0.6096,0,0,0,2,1,1,2,1,2,6,3
12_001,YA,A,35,1,stable,5,2,3,1,8,541,0.5911,0.2737,0,0,0,3,4,1,2,1,2,8,2
12_001,YA,A,36,1,stable,1,2,3,1,8,549,0.5961,0.3575,0,0,0,3,4,1,2,1,2,8,2
12_001,YA,A,37,1,stable,5,2,3,1,5,574,0.5034,0.4981,0,0,0,4,3,1,2,1,2,5,2
12_001,YA,A,38,1,stable,5,1,1,1,5,599,0.9832,0.3851,0,0,0,1,2,1,2,1,2,5,7
12_001,YA,A,39,1,stable,5,2,4,2,6,629,0.7031,0.3059,0,0,0,3,4,1,2,1,2,6,6
12_001,YA,A,40,1,stable,5,1,1,1,7,664,0.7112,0.5699,0,0,0,1,2,1,2,1,2,7,8
12_001,YA,A,41,1,stable,1,2,3,1,6,670,0.5655,0.5915,0,0,0,4,3,1,2,1,2,6,7
12_001,YA,A,42,1,stable,5,2,3,1,1,675,0.3969,0.3272,0,0,0,3,4,1,2,1,2,1,7
12_001,YA,A,43,1,stable,5,2,4,2,5,700,0.8739,0.3645,0,0,0,4,3,1,2,1,2,2,5
12_001,YA,A,44,1,stable,1,2,4,2,7,707,0.5143,0.2683,0,0,0,4,3,1,2,1,2,2,7
12_001,YA,A,45,1,stable,1,2,4,2,8,715,0.4962,0.4339,0,0,0,4,3,1,2,1,2,3,8
12_001,YA,A,46,1,stable,1,2,4,2,8,723,0.5648,0.3745,0,0,0,3,4,1,2,1,2,7,8
12_001,YA,A,47,1,stable,5,1,2,2,9,768,0.7459,0.3483,0,0,0,1,2,1,2,1,2,1,9
12_001,YA,A,48,1,stable,5,2,4,2,9,813,1.1259,0.6008,0,0,0,4,3,1,2,1,2,1,9
12_001,YA,A,49,1,stable,5,2,4,2,6,843,0.8006,0.4985,0,0,0,4,3,1,2,1,2,1,6
12_001,YA,A,50,1,stable,5,2,3,1,0,843,0.4552,0.4739,0,0,0,4,3,1,2,1,2,0,7
12_001,YA,A,51,1,stable,5,1,2,2,6,873,0.8842,0.4541,0,0,0,2,1,1,2,1,2,2,6
12_001,YA,A,52,1,stable,5,2,4,2,4,893,0.7469,0.8448,0,0,0,4,3,1,2,1,2,0,4
12_001,YA,A,53,1,stable,5,2,3,1,4,913,0.4926,0.3352,0,0,0,3,4,1,2,1,2,4,5
12_001,YA,A,54,1,stable,1,2,3,1,4,917,0.4388,0.3768,0,0,0,4,3,1,2,1,2,4,5
12_001,YA,A,55,1,stable,5,1,2,2,8,957,1.2248,0.347,0,0,0,1,2,1,2,1,2,6,8
12_001,YA,A,56,1,stable,1,1,1,1,5,962,0.6137,0.3355,0,0,0,2,1,1,2,1,2,5,6
12_001,YA,A,57,1,stable,5,1,2,2,8,1002,0.6616,0.3121,0,0,0,2,1,1,2,1,2,5,8
12_001,YA,A,58,1,stable,1,2,4,2,8,1010,0.6274,1.8543,0,0,0,3,4,1,2,1,2,5,8
12_001,YA,A,59,1,stable,5,1,2,2,8,1050,0.8652,0.3786,0,0,0,1,2,1,2,1,2,4,8
12_001,YA,A,60,1,stable,1,2,4,2,8,1058,0.7727,0.5752,0,0,0,3,4,1,2,1,2,3,8
12_001,YA,A,61,1,stable,1,1,2,2,8,1066,1.3228,0.3973,0,0,0,1,2,1,2,1,2,3,8
12_001,YA,A,62,1,stable,1,1,2,2,9,1075,1.3357,0.5306,0,0,0,2,1,1,2,1,2,1,9
12_001,YA,A,63,1,stable,1,2,4,2,8,1083,1.1237,0.4143,0,0,0,3,4,1,2,1,2,4,8
12_001,YA,A,64,1,stable,1,2,4,2,4,1087,0.6731,0.2921,0,0,0,4,3,1,2,1,2,5,4
12_001,YA,A,65,1,stable,1,1,1,1,9,1096,0.8193,0.5979,0,0,0,2,1,1,2,1,2,9,5
12_001,YA,A,66,1,stable,5,1,1,1,8,1136,0.9597,0.2984,0,0,0,1,2,1,2,1,2,8,7
12_001,YA,A,67,1,stable,1,2,3,1,8,1144,0.6526,0.3193,0,0,0,3,4,1,2,1,2,8,8
12_001,YA,A,68,1,stable,1,2,3,1,7,1151,0.7538,0.3964,0,0,0,4,3,1,2,1,2,7,8
12_001,YA,A,69,1,stable,5,2,3,1,9,1196,0.4887,0.3228,0,0,0,3,4,1,2,1,2,9,8
12_001,YA,A,70,1,stable,5,2,3,1,8,1236,0.7719,0.3661,0,0,0,4,3,1,2,1,2,8,8
12_001,YA,A,71,1,stable,1,1,2,2,8,1244,0.9847,0.3466,0,0,0,1,2,1,2,1,2,6,8
12_001,YA,A,72,1,stable,1,2,4,2,6,1250,0.6613,0.8239,0,0,0,3,4,1,2,1,2,7,6
12_001,YA,A,73,1,stable,1,1,1,1,6,1256,0.9059,0.4046,0,0,0,2,1,1,2,1,2,6,5
12_001,YA,A,74,1,stable,1,1,1,1,2,1258,0.6901,0.3165,0,0,0,1,2,1,2,1,2,2,5
12_001,YA,A,75,1,stable,5,1,2,2,6,1288,0.6859,0.2726,0,0,0,1,2,1,2,1,2,1,6
12_001,YA,A,76,1,stable,5,1,2,2,8,1328,1.2301,0.4486,0,0,0,1,2,1,2,1,2,1,8
12_001,YA,A,77,1,stable,5,1,2,2,7,1363,0.7553,0.4059,0,0,0,1,2,1,2,1,2,2,7
12_001,YA,A,78,1,stable,1,1,2,2,6,1369,0.6182,0.2688,0,0,0,2,1,1,2,1,2,0,6
12_001,YA,A,79,1,stable,1,1,1,1,3,1372,0.7936,0.3803,0,0,0,1,2,1,2,1,2,3,2
12_001,YA,A,80,1,stable,5,1,2,2,3,1387,1.0756,0.2703,0,0,0,2,1,1,2,1,2,6,3
12_001,YA,A,81,2,variable,1,1,2,1,6,1393,1.0582,0.4607,0,0,0,1,2,2,1,1,2,6,1
12_001,YA,A,82,2,variable,1,1,2,1,8,1401,0.9384,0.381,0,0,0,2,1,2,1,1,2,8,1
12_001,YA,A,83,2,variable,1,2,4,2,4,1405,0.8375,0.4564,0,0,0,3,4,2,1,1,2,6,4
12_001,YA,A,84,2,variable,5,1,1,2,2,1415,0.9517,0.4585,0,0,0,2,1,2,1,1,2,9,2
12_001,YA,A,85,2,variable,1,2,4,2,4,1419,1.2349,0.5488,0,0,0,3,4,2,1,1,2,7,4
12_001,YA,A,86,2,variable,1,1,1,2,7,1426,0.7304,1.0682,0,0,0,2,1,2,1,1,2,9,7
12_001,YA,A,87,2,variable,5,1,1,2,7,1461,0.6319,0.4899,0,0,0,1,2,2,1,1,2,9,7
12_001,YA,A,88,2,variable,1,2,4,2,8,1469,0.7976,0.6235,0,0,0,3,4,2,1,1,2,6,8
12_001,YA,A,89,2,variable,5,2,4,2,9,1514,0.8189,0.3818,0,0,0,3,4,2,1,1,2,3,9
12_001,YA,A,90,2,variable,5,2,4,2,8,1554,0.743,0.4018,0,0,0,4,3,2,1,1,2,1,8
12_001,YA,A,91,2,variable,5,2,4,2,6,1584,0.6124,0.4141,0,0,0,3,4,2,1,1,2,3,6
12_001,YA,A,92,2,variable,1,2,3,1,0,1584,1.0909,0.5175,0,0,0,4,3,2,1,1,2,0,8
12_001,YA,A,93,2,variable,1,2,4,1,4,1588,0.7199,0.5463,0,0,0,4,3,2,1,2,1,4,7
12_001,YA,A,94,2,variable,1,1,1,2,7,1595,0.7621,0.4208,0,0,0,2,1,2,1,2,1,7,7
12_001,YA,A,95,2,variable,5,2,4,1,9,1640,0.8244,0.427,0,0,0,4,3,2,1,2,1,9,8
12_001,YA,A,96,2,variable,5,1,1,2,6,1670,0.6775,0.3519,0,0,0,2,1,2,1,2,1,8,6
12_001,YA,A,97,2,variable,5,1,1,2,8,1710,0.6928,0.3752,0,0,0,1,2,2,1,2,1,8,8
12_001,YA,A,98,2,variable,1,1,2,1,8,1718,0.7438,0.5063,0,0,0,2,1,2,1,2,1,8,2
12_001,YA,A,99,2,variable,5,2,4,1,7,1753,0.6023,0.4847,0,0,0,3,4,2,1,2,1,7,2
12_001,YA,A,100,2,variable,1,2,4,1,6,1759,0.6463,0.4555,0,0,0,4,3,2,1,2,1,6,1
12_001,YA,A,101,2,variable,5,2,4,1,7,1794,0.5071,0.3497,0,0,0,4,3,1,2,2,1,7,1
12_001,YA,A,102,2,variable,5,1,1,1,5,1819,0.8499,0.4273,0,0,0,2,1,1,2,2,1,5,5
12_001,YA,A,103,2,variable,1,1,2,2,3,1822,1.2339,0.5479,0,0,0,2,1,1,2,2,1,3,3
12_001,YA,A,104,2,variable,5,2,3,2,3,1837,0.7638,0.4057,0,0,0,3,4,1,2,2,1,0,3
12_001,YA,A,105,2,variable,5,1,1,1,2,1847,0.6147,0.4325,0,0,0,2,1,1,2,2,1,2,3
12_001,YA,A,106,2,variable,5,1,2,2,3,1862,1.0977,0.3716,0,0,0,1,2,1,2,2,1,2,3
12_001,YA,A,107,2,variable,1,2,4,1,6,1868,0.9564,0.4791,0,0,0,4,3,2,1,2,1,6,1
12_001,YA,A,108,2,variable,1,1,1,2,1,1869,0.7008,0.4225,0,0,0,2,1,2,1,2,1,7,1
12_001,YA,A,109,2,variable,5,1,1,2,1,1874,0.9135,1.1314,0,0,0,2,1,2,1,2,1,7,1
12_001,YA,A,110,2,variable,1,2,4,1,6,1880,1.0217,0.5124,0,0,0,4,3,2,1,2,1,6,4
12_001,YA,A,111,2,variable,1,1,2,1,4,1884,0.8457,0.4964,0,0,0,1,2,2,1,2,1,4,8
12_001,YA,A,112,2,variable,5,1,2,1,7,1919,1.1201,0.4587,0,0,0,1,2,2,1,2,1,7,7
12_001,YA,A,113,2,variable,1,1,1,2,6,1925,0.7191,0.3697,0,0,0,1,2,2,1,2,1,6,6
12_001,YA,A,114,2,variable,1,2,4,1,6,1931,0.8712,0.4652,0,0,0,3,4,2,1,2,1,6,5
12_001,YA,A,115,2,variable,5,1,2,1,8,1971,0.662,0.2565,0,0,0,1,2,2,1,2,1,8,3
12_001,YA,A,116,2,variable,1,1,2,1,7,1978,0.8678,0.3979,0,0,0,2,1,2,1,2,1,7,3
12_001,YA,A,117,2,variable,1,2,3,2,4,1982,0.6415,0.628,0,0,0,4,3,2,1,2,1,8,4
12_001,YA,A,118,2,variable,1,1,1,2,4,1986,1.2362,0.5264,0,0,0,1,2,2,1,1,2,7,4
12_001,YA,A,119,2,variable,1,2,4,2,1,1987,1.0302,0.6161,0,0,0,3,4,2,1,1,2,6,1
12_001,YA,A,120,2,variable,1,1,1,2,1,1988,0.8505,0.4683,0,0,0,1,2,2,1,1,2,7,1
12_001,YA,A,121,2,variable,1,2,4,2,3,1991,0.8145,0.4964,0,0,0,3,4,2,1,1,2,7,3
12_001,YA,A,122,2,variable,5,1,1,2,3,2006,0.9045,0.4355,0,0,0,2,1,2,1,1,2,9,3
12_001,YA,A,123,2,variable,5,2,3,1,8,2046,0.6033,0.3981,0,0,0,3,4,2,1,1,2,8,3
12_001,YA,A,124,2,variable,5,1,1,2,4,2066,0.7285,0.387,0,0,0,1,2,2,1,1,2,8,4
12_001,YA,A,125,2,variable,5,1,1,2,3,2081,0.7381,0.4287,0,0,0,2,1,2,1,1,2,6,3
12_001,YA,A,126,2,variable,5,2,4,2,4,2101,0.7255,0.432,0,0,0,4,3,2,1,1,2,7,4
12_001,YA,A,127,2,variable,1,1,1,2,7,2108,0.6633,0.4811,0,0,0,2,1,2,1,1,2,7,7
12_001,YA,A,128,2,variable,5,1,1,2,6,2138,0.8528,0.4474,0,0,0,1,2,2,1,1,2,5,6
12_001,YA,A,129,2,variable,5,1,1,2,8,2178,0.7163,0.374,0,0,0,2,1,2,1,1,2,6,8
12_001,YA,A,130,2,variable,5,2,3,1,7,2213,0.7587,0.3693,0,0,0,4,3,2,1,1,2,7,7
12_001,YA,A,131,2,variable,1,1,2,1,7,2220,0.6449,0.4475,0,0,0,2,1,2,1,1,2,7,6
12_001,YA,A,132,2,variable,5,2,4,1,8,2260,0.9873,0.4298,0,0,0,3,4,2,1,2,1,8,7
12_001,YA,A,133,2,variable,1,2,3,2,8,2268,0.8407,0.3951,0,0,0,3,4,2,1,2,1,7,8
12_001,YA,A,134,2,variable,1,1,2,1,7,2275,0.6865,0.441,0,0,0,1,2,2,1,2,1,7,8
12_001,YA,A,135,2,variable,1,2,4,1,6,2281,0.6294,0.3833,0,0,0,4,3,2,1,2,1,6,8
12_001,YA,A,136,2,variable,1,1,1,2,5,2286,1.0282,0.4547,0,0,0,1,2,2,1,2,1,5,5
12_001,YA,A,137,2,variable,1,1,1,2,8,2294,0.7653,0.5032,0,0,0,1,2,2,1,2,1,0,8
12_001,YA,A,138,2,variable,1,2,4,1,1,2295,0.6419,0.3404,0,0,0,4,3,2,1,2,1,1,7
12_001,YA,A,139,2,variable,5,1,1,2,6,2325,1.0715,0.682,0,0,0,2,1,2,1,2,1,2,6
12_001,YA,A,140,2,variable,5,1,1,2,5,2350,0.6868,0.3214,0,0,0,2,1,2,1,2,1,0,5
12_001,YA,A,141,2,variable,5,1,1,2,4,2370,0.9602,0.2668,0,0,0,1,2,2,1,2,1,0,4
12_001,YA,A,142,2,variable,5,2,4,1,1,2375,1.05,0.3717,0,0,0,4,3,2,1,2,1,1,7
12_001,YA,A,143,2,variable,5,2,4,1,1,2380,0.8626,0.3293,0,0,0,4,3,2,1,2,1,1,7
12_001,YA,A,144,2,variable,1,2,3,2,7,2387,1.1483,0.4062,0,0,0,3,4,2,1,2,1,2,7
12_001,YA,A,145,2,variable,5,2,3,2,5,2412,0.8185,0.3971,0,0,0,4,3,1,2,2,1,3,5
12_001,YA,A,146,2,variable,5,2,3,2,2,2422,1.019,0.5343,0,0,0,3,4,1,2,2,1,4,2
12_001,YA,A,147,2,variable,5,2,4,1,0,2422,1.1341,0.5117,0,0,0,3,4,1,2,2,1,0,6
12_001,YA,A,148,2,variable,5,2,3,2,6,2452,0.8664,0.3723,0,0,0,4,3,1,2,2,1,4,6
12_001,YA,A,149,2,variable,1,2,3,2,6,2458,0.5458,0.3159,0,0,0,3,4,1,2,2,1,6,6
12_001,YA,A,150,2,variable,1,2,3,2,8,2466,0.6245,0.2833,0,0,0,4,3,1,2,2,1,2,8
12_001,YA,A,151,2,variable,5,1,1,1,1,2471,0.6781,0.3203,0,0,0,1,2,1,2,2,1,1,8
12_001,YA,A,152,2,variable,5,2,4,1,0,2471,0.5548,0.3574,0,0,0,3,4,2,1,2,1,0,8
12_001,YA,A,153,2,variable,5,2,4,1,0,2471,0.6886,0.4909,0,0,0,3,4,2,1,2,1,0,7
12_001,YA,A,154,2,variable,5,2,3,2,7,2506,0.8698,0.3524,0,0,0,4,3,2,1,2,1,3,7
12_001,YA,A,155,2,variable,1,2,3,2,8,2514,1.0182,0.4927,0,0,0,4,3,2,1,2,1,4,8
12_001,YA,A,156,2,variable,1,2,3,2,8,2522,0.9359,0.4426,0,0,0,3,4,2,1,2,1,4,8
12_001,YA,A,157,2,variable,1,1,1,2,8,2530,0.6778,0.4405,0,0,0,1,2,2,1,2,1,6,8
12_001,YA,A,158,2,variable,1,1,1,2,8,2538,0.6918,0.4948,0,0,0,1,2,2,1,2,1,4,8
12_001,YA,A,159,2,variable,5,1,1,2,5,2563,0.7857,0.4125,0,0,0,1,2,2,1,2,1,4,5
12_001,YA,A,160,2,variable,1,1,1,2,5,2568,0.4837,1.2928,0,0,0,2,1,2,1,2,1,8,5
12_001,YA,A,161,3,stable,1,2,3,2,6,2574,0.812,0.5177,0,0,0,4,3,2,1,2,1,6,6
12_001,YA,A,162,3,stable,1,1,2,1,6,2580,0.7866,0.6053,0,0,0,2,1,2,1,2,1,6,7
12_001,YA,A,163,3,stable,1,1,1,2,7,2587,0.7227,0.4857,0,0,0,1,2,2,1,2,1,8,7
12_001,YA,A,164,3,stable,5,1,1,2,4,2607,1.0331,0.4829,0,0,0,1,2,2,1,2,1,7,4
12_001,YA,A,165,3,stable,5,2,4,1,9,2652,0.898,0.2999,0,0,0,4,3,2,1,2,1,9,8
12_001,YA,A,166,3,stable,1,2,4,1,7,2659,0.6934,0.2561,0,0,0,4,3,2,1,2,1,7,5
12_001,YA,A,167,3,stable,5,2,4,1,6,2689,0.629,0.3992,0,0,0,4,3,2,1,2,1,6,6
12_001,YA,A,168,3,stable,5,2,4,1,6,2719,0.5402,0.3904,0,0,0,3,4,2,1,2,1,6,8
12_001,YA,A,169,3,stable,5,2,4,1,8,2759,0.9,0.3018,0,0,0,3,4,2,1,2,1,8,7
12_001,YA,A,170,3,stable,1,1,2,1,5,2764,0.7838,0.2418,0,0,0,1,2,2,1,2,1,5,8
12_001,YA,A,171,3,stable,5,2,3,2,9,2809,0.7286,0.339,0,0,0,3,4,2,1,2,1,3,9
12_001,YA,A,172,3,stable,1,2,3,2,8,2817,0.9571,0.4158,0,0,0,3,4,2,1,2,1,5,8
12_001,YA,A,173,3,stable,1,1,2,1,6,2823,0.5864,0.3168,0,0,0,1,2,2,1,2,1,6,4
12_001,YA,A,174,3,stable,5,1,1,2,2,2833,1.0264,0.4523,0,0,0,2,1,2,1,2,1,4,2
12_001,YA,A,175,3,stable,5,1,2,1,4,2853,1.0298,0.3194,0,0,0,2,1,2,1,2,1,4,3
12_001,YA,A,176,3,stable,5,1,2,1,4,2873,1.1504,0.2804,0,0,0,1,2,2,1,2,1,4,2
12_001,YA,A,177,3,stable,5,1,1,2,4,2893,1.248,0.2493,0,0,0,2,1,2,1,2,1,5,4
12_001,YA,A,178,3,stable,5,2,3,2,4,2913,0.8409,0.5469,0,0,0,4,3,2,1,2,1,3,4
12_001,YA,A,179,3,stable,5,2,4,1,1,2918,0.6739,0.3484,0,0,0,3,4,2,1,2,1,1,2
12_001,YA,A,180,3,stable,1,1,1,2,5,2923,0.5594,0.6655,0,0,0,2,1,2,1,2,1,1,5
12_001,YA,A,181,3,stable,1,1,1,2,4,2927,0.6793,0.2811,0,0,0,2,1,2,1,2,1,3,4
12_001,YA,A,182,3,stable,1,1,2,1,5,2932,0.975,0.2815,0,0,0,1,2,2,1,2,1,5,2
12_001,YA,A,183,3,stable,1,1,2,1,8,2940,0.8635,0.4972,0,0,0,2,1,2,1,2,1,8,2
12_001,YA,A,184,3,stable,1,2,4,1,6,2946,0.8519,0.3905,0,0,0,3,4,2,1,2,1,6,1
12_001,YA,A,185,3,stable,1,2,4,1,8,2954,0.7003,0.318,0,0,0,4,3,2,1,2,1,8,1
12_001,YA,A,186,3,stable,1,2,4,1,7,2961,1.0644,0.8743,0,0,0,3,4,2,1,2,1,7,3
12_001,YA,A,187,3,stable,5,2,4,1,6,2991,0.6715,0.2496,0,0,0,3,4,2,1,2,1,6,2
12_001,YA,A,188,3,stable,1,2,3,2,0,2991,0.9825,0.3128,0,0,0,3,4,2,1,2,1,7,0
12_001,YA,A,189,3,stable,5,1,2,1,7,3026,1.0584,0.2771,0,0,0,2,1,2,1,2,1,7,1
12_001,YA,A,190,3,stable,5,1,2,1,5,3051,0.8175,0.3075,0,0,0,2,1,2,1,2,1,5,0
12_001,YA,A,191,3,stable,1,1,1,2,0,3051,1.4583,0.4126,0,0,0,2,1,2,1,2,1,7,0
12_001,YA,A,192,3,stable,1,2,4,1,7,3058,0.5756,0.4022,0,0,0,3,4,2,1,2,1,7,5
12_001,YA,A,193,3,stable,5,1,2,1,7,3093,0.7819,0.3598,0,0,0,1,2,2,1,2,1,7,3
12_001,YA,A,194,3,stable,1,1,2,1,9,3102,1.1402,0.2954,0,0,0,1,2,2,1,2,1,9,5
12_001,YA,A,195,3,stable,5,1,2,1,8,3142,0.673,0.2998,0,0,0,1,2,2,1,2,1,8,8
12_001,YA,A,196,3,stable,1,2,4,1,6,3148,0.5504,0.2963,0,0,0,3,4,2,1,2,1,6,5
12_001,YA,A,197,3,stable,1,1,2,1,5,3153,0.837,0.2799,0,0,0,2,1,2,1,2,1,5,4
12_001,YA,A,198,3,stable,1,1,1,2,3,3156,0.5255,0.4161,0,0,0,2,1,2,1,2,1,7,3
12_001,YA,A,199,3,stable,5,2,4,1,8,3196,1.5922,0.8268,0,0,0,4,3,2,1,2,1,8,2
12_001,YA,A,200,3,stable,5,1,2,1,6,3226,1.0941,0.4247,0,0,0,2,1,2,1,2,1,6,2
12_001,YA,A,201,3,stable,5,1,2,1,4,3246,0.7249,0.3118,0,0,0,1,2,2,1,2,1,4,0
12_001,YA,A,202,3,stable,5,2,4,1,4,3266,0.9825,0.3604,0,0,0,4,3,2,1,2,1,4,3
12_001,YA,A,203,3,stable,5,2,3,2,3,3281,0.7527,0.2747,0,0,0,4,3,2,1,2,1,5,3
12_001,YA,A,204,3,stable,5,2,4,1,6,3311,0.8755,0.6941,0,0,0,3,4,2,1,2,1,6,4
12_001,YA,A,205,3,stable,5,1,2,1,3,3326,1.1237,0.3421,0,0,0,1,2,2,1,2,1,3,3
12_001,YA,A,206,3,stable,1,2,3,2,3,3329,0.5033,0.5857,0,0,0,4,3,2,1,2,1,0,3
12_001,YA,A,207,3,stable,5,1,1,2,6,3359,1.0344,0.2837,0,0,0,1,2,2,1,2,1,4,6
12_001,YA,A,208,3,stable,1,2,3,2,6,3365,0.5125,0.2183,0,0,0,4,3,2,1,2,1,3,6
12_001,YA,A,209,3,stable,1,1,2,1,6,3371,0.5912,0.3538,0,0,0,1,2,2,1,2,1,6,5
12_001,YA,A,210,3,stable,5,2,4,1,7,3406,0.6547,1.5291,0,0,0,4,3,2,1,2,1,7,8
12_001,YA,A,211,3,stable,1,2,4,1,9,3415,0.7336,0.5276,0,0,0,3,4,2,1,2,1,9,7
12_001,YA,A,212,3,stable,5,2,4,1,7,3450,0.7943,0.3484,0,0,0,4,3,2,1,2,1,7,9
12_001,YA,A,213,3,stable,1,2,3,2,9,3459,0.9041,0.3228,0,0,0,4,3,2,1,2,1,8,9
12_001,YA,A,214,3,stable,5,2,3,2,9,3504,0.589,0.3674,0,0,0,3,4,2,1,2,1,7,9
12_001,YA,A,215,3,stable,1,1,1,2,8,3512,1.089,0.2997,0,0,0,2,1,2,1,2,1,7,8
12_001,YA,A,216,3,stable,5,2,3,2,7,3547,0.5735,0.3122,0,0,0,3,4,2,1,2,1,8,7
12_001,YA,A,217,3,stable,1,2,3,2,3,3550,1.0044,0.3512,0,0,0,3,4,2,1,2,1,7,3
12_001,YA,A,218,3,stable,1,1,2,1,8,3558,0.5752,0.3378,0,0,0,1,2,2,1,2,1,8,6
12_001,YA,A,219,3,stable,1,2,4,1,0,3558,0.9812,-1,0,1,1,4,3,2,1,2,1,8,8
12_001,YA,A,220,3,stable,5,2,3,2,7,3593,1.3782,0.5329,0,0,0,4,3,2,1,2,1,8,7
12_001,YA,A,221,3,stable,5,2,3,2,6,3623,0.6404,0.507,0,0,0,4,3,2,1,2,1,7,6
12_001,YA,A,222,3,stable,1,2,4,1,7,3630,0.7844,0.2672,0,0,0,4,3,2,1,2,1,7,4
12_001,YA,A,223,3,stable,5,1,1,2,4,3650,0.7747,0.9374,0,0,0,2,1,2,1,2,1,6,4
12_001,YA,A,224,3,stable,5,1,2,1,7,3685,0.7367,0.363,0,0,0,2,1,2,1,2,1,7,4
12_001,YA,A,225,3,stable,1,2,4,1,9,3694,1.0627,0.9293,0,0,0,4,3,2,1,2,1,9,6
12_001,YA,A,226,3,stable,1,2,4,1,8,3702,0.9721,0.3742,0,0,0,3,4,2,1,2,1,8,5
12_001,YA,A,227,3,stable,1,1,2,1,7,3709,1.0175,0.4033,0,0,0,1,2,2,1,2,1,7,5
12_001,YA,A,228,3,stable,1,2,4,1,5,3714,1.015,0.457,0,0,0,4,3,2,1,2,1,5,7
12_001,YA,A,229,3,stable,5,1,1,2,5,3739,0.9596,0.3623,0,0,0,1,2,2,1,2,1,4,5
12_001,YA,A,230,3,stable,1,1,2,1,2,3741,0.8488,0.4749,0,0,0,1,2,2,1,2,1,2,5
12_001,YA,A,231,3,stable,1,1,1,2,3,3744,0.7726,0.3513,0,0,0,2,1,2,1,2,1,2,3
12_001,YA,A,232,3,stable,5,1,1,2,2,3754,0.5353,0.2981,0,0,0,1,2,2,1,2,1,1,2
12_001,YA,A,233,3,stable,5,1,1,2,1,3759,0.7073,0.4381,0,0,0,2,1,2,1,2,1,2,1
12_001,YA,A,234,3,stable,5,1,1,2,3,3774,0.8648,0.515,0,0,0,2,1,2,1,2,1,4,3
12_001,YA,A,235,3,stable,5,2,4,1,5,3799,0.9868,0.4613,0,0,0,3,4,2,1,2,1,5,0
12_001,YA,A,236,3,stable,5,1,2,1,6,3829,0.7646,0.2859,0,0,0,1,2,2,1,2,1,6,2
12_001,YA,A,237,3,stable,1,2,4,1,9,3838,1.0588,0.6375,0,0,0,3,4,2,1,2,1,9,4
12_001,YA,A,238,3,stable,1,1,2,1,7,3845,0.7747,0.3296,0,0,0,1,2,2,1,2,1,7,3
12_001,YA,A,239,3,stable,1,1,2,1,6,3851,0.7171,0.3432,0,0,0,2,1,2,1,2,1,6,1
12_001,YA,A,240,3,stable,5,2,4,1,6,3881,1.0205,1.1191,0,0,0,3,4,2,1,2,1,6,1
12_001,YA,A,241,4,variable,5,2,3,2,3,3896,0.7022,0.4331,0,0,0,3,4,1,2,2,1,8,3
12_001,YA,A,242,4,variable,1,1,2,2,5,3901,0.8411,0.3477,0,0,0,1,2,1,2,2,1,8,5
12_001,YA,A,243,4,variable,5,1,1,1,7,3936,0.8656,0.4675,0,0,0,2,1,1,2,2,1,7,7
12_001,YA,A,244,4,variable,1,1,1,1,6,3942,0.8632,0.3852,0,0,0,2,1,1,2,2,1,6,6
12_001,YA,A,245,4,variable,1,1,1,1,7,3949,0.622,0.3206,0,0,0,1,2,1,2,2,1,7,7
12_001,YA,A,246,4,variable,5,1,1,1,4,3969,0.7405,0.3669,0,0,0,1,2,1,2,2,1,4,7
12_001,YA,A,247,4,variable,5,1,2,2,4,3989,1.4457,0.4323,0,0,0,2,1,1,2,2,1,3,4
12_001,YA,A,248,4,variable,5,1,1,1,5,4014,1.2075,0.4021,0,0,0,2,1,1,2,2,1,5,2
12_001,YA,A,249,4,variable,5,1,1,1,2,4024,0.7119,0.3385,0,0,0,1,2,1,2,1,2,2,1
12_001,YA,A,250,4,variable,1,1,2,2,0,4024,1.1084,0.455,0,0,0,2,1,1,2,1,2,2,0
12_001,YA,A,251,4,variable,5,2,4,2,1,4029,1.162,0.4046,0,0,0,3,4,1,2,1,2,3,1
12_001,YA,A,252,4,variable,5,2,3,1,1,4034,1.3756,0.4902,0,0,0,4,3,1,2,1,2,1,0
12_001,YA,A,253,4,variable,5,1,1,1,0,4034,0.7172,0.3351,0,0,0,1,2,1,2,1,2,0,0
12_001,YA,A,254,4,variable,1,2,4,2,2,4036,1.1055,0.4121,0,0,0,4,3,1,2,1,2,1,2
12_001,YA,A,255,4,variable,5,2,4,2,5,4061,0.8059,0.2886,0,0,0,4,3,1,2,1,2,2,5
12_001,YA,A,256,4,variable,1,2,4,2,7,4068,0.5838,0.3772,0,0,0,4,3,1,2,1,2,2,7
12_001,YA,A,257,4,variable,1,2,4,2,8,4076,0.7256,0.5203,0,0,0,3,4,1,2,1,2,4,8
12_001,YA,A,258,4,variable,5,1,2,2,9,4121,0.8191,0.3813,0,0,0,1,2,1,2,1,2,5,9
12_001,YA,A,259,4,variable,5,2,4,2,7,4156,1.0308,0.6887,0,0,0,4,3,1,2,1,2,3,7
12_001,YA,A,260,4,variable,5,1,2,1,5,4181,1.1572,0.2559,0,0,0,2,1,2,1,1,2,5,5
12_001,YA,A,261,4,variable,5,1,2,1,8,4221,0.9184,0.3689,0,0,0,2,1,2,1,1,2,8,6
12_001,YA,A,262,4,variable,5,1,2,1,8,4261,1.0117,0.3343,0,0,0,2,1,2,1,1,2,8,3
12_001,YA,A,263,4,variable,5,1,2,1,9,4306,0.8809,0.2907,0,0,0,1,2,2,1,1,2,9,3
12_001,YA,A,264,4,variable,1,2,4,2,0,4306,1.0936,0.5516,0,0,0,3,4,2,1,1,2,8,0
12_001,YA,A,265,4,variable,1,1,1,2,1,4307,0.8739,0.5967,0,0,0,1,2,2,1,1,2,7,1
12_001,YA,A,266,4,variable,1,2,4,2,0,4307,1.0627,-1,0,1,1,3,4,2,1,1,2,6,3
12_001,YA,A,267,4,variable,5,1,1,2,4,4327,0.7417,0.3445,0,0,0,2,1,2,1,1,2,5,4
12_001,YA,A,268,4,variable,5,1,2,1,3,4342,0.7681,0.355,0,0,0,1,2,2,1,1,2,3,5
12_001,YA,A,269,4,variable,5,2,3,1,1,4347,0.6835,0.278,0,0,0,3,4,1,2,1,2,1,6
12_001,YA,A,270,4,variable,1,2,4,2,5,4352,0.8004,0.4826,0,0,0,4,3,1,2,1,2,2,5
12_001,YA,A,271,4,variable,5,2,4,2,3,4367,0.9125,0.363,0,0,0,3,4,1,2,1,2,4,3
12_001,YA,A,272,4,variable,1,1,2,2,2,4369,0.827,0.2776,0,0,0,1,2,1,2,1,2,2,2
12_001,YA,A,273,4,variable,5,2,3,1,2,4379,0.6474,0.3133,0,0,0,4,3,1,2,1,2,2,4
12_001,YA,A,274,4,variable,1,1,1,1,1,4380,0.8513,0.3253,0,0,0,2,1,1,2,1,2,1,5
12_001,YA,A,275,4,variable,5,2,4,2,3,4395,0.9122,0.3149,0,0,0,3,4,1,2,1,2,6,3
12_001,YA,A,276,4,variable,5,1,2,2,5,4420,0.683,0.4128,0,0,0,1,2,1,2,1,2,5,5
12_001,YA,A,277,4,variable,1,2,4,2,0,4420,0.6828,0.2848,0,0,0,3,4,1,2,1,2,4,0
12_001,YA,A,278,4,variable,5,2,3,1,5,4445,0.6789,0.3139,0,0,0,4,3,1,2,1,2,5,2
12_001,YA,A,279,4,variable,5,2,3,1,7,4480,0.6155,0.4735,0,0,0,3,4,1,2,1,2,7,1
12_001,YA,A,280,4,variable,1,2,3,1,5,4485,0.4778,0.2724,0,0,0,4,3,1,2,1,2,5,1
12_001,YA,A,281,4,variable,5,2,3,1,5,4510,0.399,0.3448,0,0,0,4,3,1,2,1,2,5,1
12_001,YA,A,282,4,variable,1,1,1,1,6,4516,0.7278,0.6342,0,0,0,1,2,1,2,2,1,6,3
12_001,YA,A,283,4,variable,1,1,1,1,5,4521,0.6629,0.2008,0,0,0,2,1,1,2,2,1,5,0
12_001,YA,A,284,4,variable,1,1,2,2,2,4523,0.8947,0.5853,0,0,0,1,2,1,2,2,1,5,2
12_001,YA,A,285,4,variable,5,1,1,1,6,4553,0.8185,0.2935,0,0,0,1,2,1,2,2,1,6,4
12_001,YA,A,286,4,variable,5,1,1,1,8,4593,1.1786,0.2932,0,0,0,1,2,1,2,2,1,8,7
12_001,YA,A,287,4,variable,5,1,1,1,8,4633,0.6166,0.2585,0,0,0,2,1,1,2,2,1,8,8
12_001,YA,A,288,4,variable,5,2,4,1,8,4673,0.5898,0.3603,0,0,0,4,3,1,2,2,1,8,9
12_001,YA,A,289,4,variable,1,2,4,1,6,4679,1.132,0.3736,0,0,0,4,3,1,2,2,1,6,9
12_001,YA,A,290,4,variable,1,1,2,2,8,4687,0.8111,0.3896,0,0,0,2,1,1,2,2,1,3,8
12_001,YA,A,291,4,variable,1,1,1,1,4,4691,0.6733,0.3076,0,0,0,2,1,1,2,2,1,4,6
12_001,YA,A,292,4,variable,1,2,4,1,5,4696,1.0193,1.0939,0,0,0,4,3,1,2,2,1,5,8
12_001,YA,A,293,4,variable,5,1,2,2,8,4736,0.6846,0.3032,0,0,0,1,2,1,2,2,1,3,8
12_001,YA,A,294,4,variable,1,2,3,2,7,4743,0.8737,0.4206,0,0,0,3,4,1,2,2,1,3,7
12_001,YA,A,295,4,variable,5,2,3,2,8,4783,0.7441,0.3467,0,0,0,3,4,1,2,2,1,1,8
12_001,YA,A,296,4,variable,1,1,2,1,3,4786,1.1576,0.3279,0,0,0,1,2,2,1,2,1,3,9
12_001,YA,A,297,4,variable,5,1,1,2,8,4826,1.0653,0.5706,0,0,0,2,1,2,1,2,1,0,8
12_001,YA,A,298,4,variable,1,1,2,1,2,4828,1.5812,0.4711,0,0,0,1,2,2,1,2,1,2,9
12_001,YA,A,299,4,variable,5,2,4,1,3,4843,1.1123,0.5793,0,0,0,4,3,2,1,2,1,3,7
12_001,YA,A,300,4,variable,1,1,1,2,5,4848,1.6437,0.5663,0,0,0,2,1,2,1,2,1,1,5
12_001,YA,A,301,4,variable,1,2,3,2,1,4849,0.6522,0.471,0,0,0,3,4,2,1,2,1,2,1
12_001,YA,A,302,4,variable,5,2,4,1,2,4859,0.6578,0.2837,0,0,0,3,4,1,2,2,1,2,1
12_001,YA,A,303,4,variable,1,2,4,1,3,4862,0.637,0.2877,0,0,0,3,4,1,2,2,1,3,0
12_001,YA,A,304,4,variable,1,2,4,1,3,4865,0.6084,0.3153,0,0,0,3,4,1,2,2,1,3,1
12_001,YA,A,305,4,variable,1,1,1,1,3,4868,0.7073,0.3577,0,0,0,2,1,1,2,2,1,3,1
12_001,YA,A,306,4,variable,1,1,1,1,3,4871,0.9586,0.4492,0,0,0,1,2,1,2,2,1,3,3
12_001,YA,A,307,4,variable,1,1,2,2,6,4877,0.7452,0.3478,0,0,0,1,2,1,2,2,1,6,6
12_001,YA,A,308,4,variable,5,2,4,1,8,4917,1.0648,0.6749,0,0,0,4,3,1,2,2,1,8,5
12_001,YA,A,309,4,variable,1,1,2,1,8,4925,0.8459,0.2885,0,0,0,2,1,2,1,2,1,8,8
12_001,YA,A,310,4,variable,1,2,4,1,7,4932,0.6838,0.3257,0,0,0,3,4,2,1,2,1,7,7
12_001,YA,A,311,4,variable,5,1,2,1,8,4972,0.8261,1.3408,0,0,0,2,1,2,1,2,1,8,7
12_001,YA,A,312,4,variable,1,2,4,1,8,4980,0.696,0.4905,0,0,0,3,4,2,1,2,1,8,8
12_001,YA,A,313,4,variable,1,2,4,1,8,4988,0.6372,0.8159,0,0,0,4,3,2,1,2,1,8,9
12_001,YA,A,314,4,variable,5,2,4,1,8,5028,0.6425,0.0006,0,0,0,3,4,2,1,2,1,8,8
12_001,YA,A,315,4,variable,5,2,4,1,8,5068,0.7117,0.3063,0,0,0,4,3,2,1,2,1,8,6
12_001,YA,A,316,4,variable,1,2,4,1,7,5075,0.5817,0.3035,0,0,0,4,3,2,1,2,1,7,3
12_001,YA,A,317,4,variable,1,1,2,1,4,5079,0.9872,0.3659,0,0,0,2,1,2,1,2,1,4,4
12_001,YA,A,318,4,variable,5,2,4,1,5,5104,0.6209,0.3433,0,0,0,3,4,2,1,2,1,5,2
12_001,YA,A,319,4,variable,1,2,4,1,3,5107,0.726,0.3446,0,0,0,4,3,2,1,2,1,3,0
12_001,YA,A,320,4,variable,1,2,3,2,0,5107,0.4895,0.3081,0,0,0,4,3,2,1,2,1,1,0
12_002,YA,B,1,1,stable,1,2,-1,0,0,0,-1,-1,1,0,1,3,4,1,2,1,2,6,2
12_002,YA,B,2,1,stable,1,1,2,2,6,6,1.9501,0.9353,0,0,0,2,1,1,2,1,2,3,6
12_002,YA,B,3,1,stable,1,1,2,2,3,9,0.7781,0.6601,0,0,0,1,2,1,2,1,2,2,3
12_002,YA,B,4,1,stable,1,1,1,1,4,13,1.0369,0.5195,0,0,0,2,1,1,2,1,2,4,4
12_002,YA,B,5,1,stable,5,2,3,1,4,33,1.9107,1.0317,0,0,0,4,3,1,2,1,2,4,3
12_002,YA,B,6,1,stable,5,1,1,1,6,63,1.1667,0.4486,0,0,0,1,2,1,2,1,2,6,4
12_002,YA,B,7,1,stable,5,1,1,1,7,98,1.1494,0.4794,0,0,0,2,1,1,2,1,2,7,3
12_002,YA,B,8,1,stable,1,1,1,1,5,103,1.0918,0.7904,0,0,0,2,1,1,2,1,2,5,3
12_002,YA,B,9,1,stable,5,1,1,1,9,148,1.6175,0.5233,0,0,0,2,1,1,2,1,2,9,2
12_002,YA,B,10,1,stable,5,1,1,1,7,183,0.9736,0.7122,0,0,0,1,2,1,2,1,2,7,9
12_002,YA,B,11,1,stable,5,2,3,1,7,218,0.967,0.4729,0,0,0,3,4,1,2,1,2,7,7
12_002,YA,B,12,1,stable,5,1,1,1,8,258,1.0112,0.4458,0,0,0,2,1,1,2,1,2,8,6
12_002,YA,B,13,1,stable,1,2,4,2,4,262,1.1611,0.4918,0,0,0,3,4,1,2,1,2,6,4
12_002,YA,B,14,1,stable,5,1,1,1,7,297,0.7795,0.3098,0,0,0,2,1,1,2,1,2,7,5
12_002,YA,B,15,1,stable,5,2,3,1,5,322,1.1379,0.8363,0,0,0,4,3,1,2,1,2,5,4
12_002,YA,B,16,1,stable,5,1,2,2,6,352,0.5143,0.4922,0,0,0,1,2,1,2,1,2,2,6
12_002,YA,B,17,1,stable,5,2,4,2,6,382,0.6737,0.4523,0,0,0,4,3,1,2,1,2,1,6
12_002,YA,B,18,1,stable,1,1,1,1,1,383,0.7452,0.4681,0,0,0,2,1,1,2,1,2,1,6
12_002,YA,B,19,1,stable,5,2,4,2,6,413,0.726,0.4886,0,0,0,3,4,1,2,1,2,1,6
12_002,YA,B,20,1,stable,1,1,1,1,1,414,0.5902,0.5128,0,0,0,2,1,1,2,1,2,1,2
12_002,YA,B,21,1,stable,1,2,3,1,5,419,1.8277,0.7504,0,0,0,4,3,1,2,1,2,5,2
12_002,YA,B,22,1,stable,5,2,4,2,5,444,0.9643,0.5663,0,0,0,4,3,1,2,1,2,6,5
12_002,YA,B,23,1,stable,5,1,2,2,9,489,0.6362,0.6869,0,0,0,1,2,1,2,1,2,8,9
12_002,YA,B,24,1,stable,1,2,3,1,7,496,1.5442,0.699,0,0,0,3,4,1,2,1,2,7,4
12_002,YA,B,25,1,stable,1,2,4,2,2,498,1.3507,0.6806,0,0,0,4,3,1,2,1,2,8,2
12_002,YA,B,26,1,stable,1,2,4,2,1,499,0.6498,0.6117,0,0,0,3,4,1,2,1,2,8,1
12_002,YA,B,27,1,stable,5,1,1,1,8,539,0.9906,0.4415,0,0,0,1,2,1,2,1,2,8,1
12_002,YA,B,28,1,stable,5,2,3,1,4,559,0.8919,0.7505,0,0,0,3,4,1,2,1,2,4,2
12_002,YA,B,29,1,stable,1,1,1,1,8,567,1.4775,0.744,0,0,0,2,1,1,2,1,2,8,5
12_002,YA,B,30,1,stable,5,1,1,1,8,607,1.1526,0.4832,0,0,0,1,2,1,2,1,2,8,4
12_002,YA,B,31,1,stable,1,2,3,1,5,612,1.9738,0.6244,0,0,0,3,4,1,2,1,2,5,6
12_002,YA,B,32,1,stable,1,2,4,2,4,616,0.7723,0.6227,0,0,0,4,3,1,2,1,2,0,4
12_002,YA,B,33,1,stable,1,1,2,2,3,619,0.6305,0.5524,0,0,0,2,1,1,2,1,2,5,3
12_002,YA,B,34,1,stable,5,1,1,1,6,649,0.7525,0.5548,0,0,0,2,1,1,2,1,2,6,3
12_002,YA,B,35,1,stable,1,2,4,2,2,651,0.7436,0.4498,0,0,0,3,4,1,2,1,2,8,2
12_002,YA,B,36,1,stable,5,2,3,1,8,691,1.1231,0.5897,0,0,0,3,4,1,2,1,2,8,2
12_002,YA,B,37,1,stable,1,2,4,2,2,693,0.473,0.6275,0,0,0,4,3,1,2,1,2,5,2
12_002,YA,B,38,1,stable,1,1,2,2,7,700,0.5895,0.7601,0,0,0,1,2,1,2,1,2,5,7
12_002,YA,B,39,1,stable,1,2,3,1,6,706,1.3489,0.5264,0,0,0,3,4,1,2,1,2,6,6
12_002,YA,B,40,1,stable,1,1,2,2,8,714,0.956,0.6466,0,0,0,1,2,1,2,1,2,7,8
12_002,YA,B,41,1,stable,5,2,4,2,7,749,0.7131,0.467,0,0,0,4,3,1,2,1,2,6,7
12_002,YA,B,42,1,stable,1,2,3,1,1,750,1.4141,0.92,0,0,0,3,4,1,2,1,2,1,7
12_002,YA,B,43,1,stable,1,2,3,1,2,752,1.0823,0.7802,0,0,0,4,3,1,2,1,2,2,5
12_002,YA,B,44,1,stable,5,2,4,2,7,787,0.5015,0.4561,0,0,0,4,3,1,2,1,2,2,7
12_002,YA,B,45,1,stable,5,2,4,2,8,827,0.4684,0.6391,0,0,0,4,3,1,2,1,2,3,8
12_002,YA,B,46,1,stable,5,2,4,2,8,867,0.4824,0.3482,0,0,0,3,4,1,2,1,2,7,8
12_002,YA,B,47,1,stable,1,1,1,1,1,868,0.6469,0.3047,0,0,0,1,2,1,2,1,2,1,9
12_002,YA,B,48,1,stable,1,2,3,1,1,869,1.0284,0.8064,0,0,0,4,3,1,2,1,2,1,9
12_002,YA,B,49,1,stable,1,2,3,1,1,870,0.8177,0.4913,0,0,0,4,3,1,2,1,2,1,6
12_002,YA,B,50,1,stable,1,2,3,1,0,870,0.8063,0.441,0,0,0,4,3,1,2,1,2,0,7
12_002,YA,B,51,1,stable,1,1,1,1,2,872,1.3712,0.6459,0,0,0,2,1,1,2,1,2,2,6
12_002,YA,B,52,1,stable,1,2,3,1,0,872,1.0237,1.3063,0,0,0,4,3,1,2,1,2,0,4
12_002,YA,B,53,1,stable,1,2,3,1,4,876,0.9813,0.4713,0,0,0,3,4,1,2,1,2,4,5
12_002,YA,B,54,1,stable,5,2,4,2,5,901,0.4712,0.4896,0,0,0,4,3,1,2,1,2,4,5
12_002,YA,B,55,1,stable,1,1,2,2,8,909,1.0402,1.7711,0,0,0,1,2,1,2,1,2,6,8
12_002,YA,B,56,1,stable,5,1,2,2,6,939,0.4457,0.3994,0,0,0,2,1,1,2,1,2,5,6
12_002,YA,B,57,1,stable,1,1,2,2,8,947,0.6838,0.3174,0,0,0,2,1,1,2,1,2,5,8
12_002,YA,B,58,1,stable,5,2,4,2,8,987,1.0239,0.4105,0,0,0,3,4,1,2,1,2,5,8
12_002,YA,B,59,1,stable,1,1,2,2,8,995,0.5899,0.3285,0,0,0,1,2,1,2,1,2,4,8
12_002,YA,B,60,1,stable,5,2,4,2,8,1035,0.7078,0.4144,0,0,0,3,4,1,2,1,2,3,8
12_002,YA,B,61,1,stable,5,1,2,2,8,1075,0.4411,0.3237,0,0,0,1,2,1,2,1,2,3,8
12_002,YA,B,62,1,stable,5,1,2,2,9,1120,0.471,0.4016,0,0,0,2,1,1,2,1,2,1,9
12_002,YA,B,63,1,stable,5,2,4,2,8,1160,0.523,0.3176,0,0,0,3,4,1,2,1,2,4,8
12_002,YA,B,64,1,stable,5,2,4,2,4,1180,0.4229,0.7054,0,0,0,4,3,1,2,1,2,5,4
12_002,YA,B,65,1,stable,5,1,1,1,9,1225,0.7372,0.3398,0,0,0,2,1,1,2,1,2,9,5
12_002,YA,B,66,1,stable,1,1,2,2,7,1232,0.5019,0.4886,0,0,0,1,2,1,2,1,2,8,7
12_002,YA,B,67,1,stable,5,2,4,2,8,1272,0.9091,0.3917,0,0,0,3,4,1,2,1,2,8,8
12_002,YA,B,68,1,stable,5,2,4,2,8,1312,0.4081,0.362,0,0,0,4,3,1,2,1,2,7,8
12_002,YA,B,69,1,stable,1,2,3,1,9,1321,1.4453,0.3679,0,0,0,3,4,1,2,1,2,9,8
12_002,YA,B,70,1,stable,1,2,4,2,8,1329,0.5666,0.2247,0,0,0,4,3,1,2,1,2,8,8
12_002,YA,B,71,1,stable,5,1,2,2,8,1369,0.6839,0.4379,0,0,0,1,2,1,2,1,2,6,8
12_002,YA,B,72,1,stable,5,2,4,2,6,1399,0.8087,0.403,0,0,0,3,4,1,2,1,2,7,6
12_002,YA,B,73,1,stable,5,1,2,2,5,1424,0.4798,0.6818,0,0,0,2,1,1,2,1,2,6,5
12_002,YA,B,74,1,stable,5,1,1,1,2,1434,0.7437,0.5542,0,0,0,1,2,1,2,1,2,2,5
12_002,YA,B,75,1,stable,1,1,1,1,1,1435,1.0595,0.662,0,0,0,1,2,1,2,1,2,1,6
12_002,YA,B,76,1,stable,1,1,1,1,1,1436,0.656,0.5383,0,0,0,1,2,1,2,1,2,1,8
12_002,YA,B,77,1,stable,1,1,1,1,2,1438,0.5653,0.3513,0,0,0,1,2,1,2,1,2,2,7
12_002,YA,B,78,1,stable,5,1,2,2,6,1468,0.5284,0.5469,0,0,0,2,1,1,2,1,2,0,6
12_002,YA,B,79,1,stable,5,1,2,2,2,1478,0.493,0.5115,0,0,0,1,2,1,2,1,2,3,2
12_002,YA,B,80,1,stable,1,1,2,2,3,1481,0.5121,0.3787,0,0,0,2,1,1,2,1,2,6,3
12_002,YA,B,81,2,variable,5,1,1,2,1,1486,1.1362,0.6111,0,0,0,1,2,2,1,1,2,6,1
12_002,YA,B,82,2,variable,5,1,2,1,8,1526,1.1258,0.6483,0,0,0,2,1,2,1,1,2,8,1
12_002,YA,B,83,2,variable,5,2,4,2,4,1546,0.5631,0.3489,0,0,0,3,4,2,1,1,2,6,4
12_002,YA,B,84,2,variable,1,1,2,1,9,1555,0.676,0.4945,0,0,0,2,1,2,1,1,2,9,2
12_002,YA,B,85,2,variable,5,2,4,2,4,1575,0.8488,0.3626,0,0,0,3,4,2,1,1,2,7,4
12_002,YA,B,86,2,variable,5,1,1,2,7,1610,0.6657,0.4276,0,0,0,2,1,2,1,1,2,9,7
12_002,YA,B,87,2,variable,1,1,1,2,7,1617,1.4881,0.6827,0,0,0,1,2,2,1,1,2,9,7
12_002,YA,B,88,2,variable,5,2,4,2,8,1657,0.5822,0.4161,0,0,0,3,4,2,1,1,2,6,8
12_002,YA,B,89,2,variable,1,2,3,1,3,1660,0.3469,0.4368,0,0,0,3,4,2,1,1,2,3,9
12_002,YA,B,90,2,variable,1,2,3,1,1,1661,0.5314,0.3974,0,0,0,4,3,2,1,1,2,1,8
12_002,YA,B,91,2,variable,1,2,3,1,3,1664,0.3996,0.3297,0,0,0,3,4,2,1,1,2,3,6
12_002,YA,B,92,2,variable,5,2,4,2,8,1704,0.4653,0.3148,0,0,0,4,3,2,1,1,2,0,8
12_002,YA,B,93,2,variable,5,2,4,1,4,1724,0.6215,0.3361,0,0,0,4,3,2,1,2,1,4,7
12_002,YA,B,94,2,variable,5,1,1,2,7,1759,1.1111,0.5937,0,0,0,2,1,2,1,2,1,7,7
12_002,YA,B,95,2,variable,1,2,3,2,8,1767,0.5741,0.2807,0,0,0,4,3,2,1,2,1,9,8
12_002,YA,B,96,2,variable,1,1,2,1,8,1775,0.7473,0.3811,0,0,0,2,1,2,1,2,1,8,6
12_002,YA,B,97,2,variable,1,1,2,1,8,1783,0.9104,0.4651,0,0,0,1,2,2,1,2,1,8,8
12_002,YA,B,98,2,variable,5,1,2,1,8,1823,0.465,0.5547,0,0,0,2,1,2,1,2,1,8,2
12_002,YA,B,99,2,variable,1,2,4,1,7,1830,1.4775,0.4081,0,0,0,3,4,2,1,2,1,7,2
12_002,YA,B,100,2,variable,5,2,4,1,6,1860,1.1004,0.4947,0,0,0,4,3,2,1,2,1,6,1
12_002,YA,B,101,2,variable,1,2,3,2,1,1861,1.2359,0.3424,0,0,0,4,3,1,2,2,1,7,1
12_002,YA,B,102,2,variable,1,1,1,1,5,1866,0.4734,0.428,0,0,0,2,1,1,2,2,1,5,5
12_002,YA,B,103,2,variable,5,1,2,2,3,1881,0.7786,0.6612,0,0,0,2,1,1,2,2,1,3,3
12_002,YA,B,104,2,variable,1,2,4,1,0,1881,0.982,0.4239,0,0,0,3,4,1,2,2,1,0,3
12_002,YA,B,105,2,variable,1,1,1,1,2,1883,0.763,0.621,0,0,0,2,1,1,2,2,1,2,3
12_002,YA,B,106,2,variable,1,1,2,2,3,1886,0.7501,0.624,0,0,0,1,2,1,2,2,1,2,3
12_002,YA,B,107,2,variable,5,2,4,1,6,1916,0.7447,0.4515,0,0,0,4,3,2,1,2,1,6,1
12_002,YA,B,108,2,variable,5,1,2,1,7,1951,1.0646,0.3221,0,0,0,2,1,2,1,2,1,7,1
12_002,YA,B,109,2,variable,1,1,1,2,1,1952,0.8465,0.4324,0,0,0,2,1,2,1,2,1,7,1
12_002,YA,B,110,2,variable,5,2,4,1,6,1982,0.6587,0.8853,0,0,0,4,3,2,1,2,1,6,4
12_002,YA,B,111,2,variable,5,1,2,1,4,2002,0.4188,0.3328,0,0,0,1,2,2,1,2,1,4,8
12_002,YA,B,112,2,variable,1,1,2,1,7,2009,0.4121,0.3579,0,0,0,1,2,2,1,2,1,7,7
12_002,YA,B,113,2,variable,5,1,2,1,6,2039,0.434,0.4366,0,0,0,1,2,2,1,2,1,6,6
12_002,YA,B,114,2,variable,5,2,4,1,6,2069,0.7617,0.3802,0,0,0,3,4,2,1,2,1,6,5
12_002,YA,B,115,2,variable,1,1,1,2,3,2072,0.513,0.2588,0,0,0,1,2,2,1,2,1,8,3
12_002,YA,B,116,2,variable,5,1,2,1,7,2107,0.4279,0.2944,0,0,0,2,1,2,1,2,1,7,3
12_002,YA,B,117,2,variable,5,2,4,1,8,2147,0.6958,0.6264,0,0,0,4,3,2,1,2,1,8,4
12_002,YA,B,118,2,variable,5,1,2,1,7,2182,0.5564,0.3434,0,0,0,1,2,2,1,1,2,7,4
12_002,YA,B,119,2,variable,5,2,4,2,1,2187,1.1773,0.5638,0,0,0,3,4,2,1,1,2,6,1
12_002,YA,B,120,2,variable,5,1,2,1,7,2222,0.5503,0.3841,0,0,0,1,2,2,1,1,2,7,1
12_002,YA,B,121,2,variable,5,2,3,1,7,2257,1.2438,0.4064,0,0,0,3,4,2,1,1,2,7,3
12_002,YA,B,122,2,variable,1,1,1,2,3,2260,0.7389,0.4134,0,0,0,2,1,2,1,1,2,9,3
12_002,YA,B,123,2,variable,1,2,4,2,3,2263,1.1576,0.4962,0,0,0,3,4,2,1,1,2,8,3
12_002,YA,B,124,2,variable,1,1,1,2,4,2267,0.8243,0.3949,0,0,0,1,2,2,1,1,2,8,4
12_002,YA,B,125,2,variable,1,1,1,2,3,2270,0.7226,0.3572,0,0,0,2,1,2,1,1,2,6,3
12_002,YA,B,126,2,variable,1,2,4,2,4,2274,0.6301,0.5279,0,0,0,4,3,2,1,1,2,7,4
12_002,YA,B,127,2,variable,5,1,2,1,7,2309,0.6556,0.4264,0,0,0,2,1,2,1,1,2,7,7
12_002,YA,B,128,2,variable,1,1,1,2,6,2315,0.9908,0.5453,0,0,0,1,2,2,1,1,2,5,6
12_002,YA,B,129,2,variable,1,1,1,2,8,2323,0.5827,0.8886,0,0,0,2,1,2,1,1,2,6,8
12_002,YA,B,130,2,variable,1,2,3,1,7,2330,0.5473,0.3171,0,0,0,4,3,2,1,1,2,7,7
12_002,YA,B,131,2,variable,5,1,2,1,7,2365,0.521,0.3558,0,0,0,2,1,2,1,1,2,7,6
12_002,YA,B,132,2,variable,1,2,3,2,7,2372,1.096,0.6745,0,0,0,3,4,2,1,2,1,8,7
12_002,YA,B,133,2,variable,5,2,4,1,7,2407,1.1269,0.3538,0,0,0,3,4,2,1,2,1,7,8
12_002,YA,B,134,2,variable,5,1,2,1,7,2442,1.0692,0.3838,0,0,0,1,2,2,1,2,1,7,8
12_002,YA,B,135,2,variable,5,2,4,1,6,2472,0.9396,0.3822,0,0,0,4,3,2,1,2,1,6,8
12_002,YA,B,136,2,variable,5,1,2,1,5,2497,0.827,0.4136,0,0,0,1,2,2,1,2,1,5,5
12_002,YA,B,137,2,variable,5,1,1,2,8,2537,0.5315,0.2933,0,0,0,1,2,2,1,2,1,0,8
12_002,YA,B,138,2,variable,5,2,4,1,1,2542,0.841,0.3393,0,0,0,4,3,2,1,2,1,1,7
12_002,YA,B,139,2,variable,1,1,2,1,2,2544,0.8543,0.9848,0,0,0,2,1,2,1,2,1,2,6
12_002,YA,B,140,2,variable,1,1,2,1,0,2544,0.4261,0.4207,0,0,0,2,1,2,1,2,1,0,5
12_002,YA,B,141,2,variable,1,1,2,1,0,2544,0.423,0.2736,0,0,0,1,2,2,1,2,1,0,4
12_002,YA,B,142,2,variable,1,2,3,2,7,2551,1.0287,0.4872,0,0,0,4,3,2,1,2,1,1,7
12_002,YA,B,143,2,variable,1,2,3,2,7,2558,1.1549,0.4379,0,0,0,4,3,2,1,2,1,1,7
12_002,YA,B,144,2,variable,5,2,3,2,7,2593,0.4093,0.3322,0,0,0,3,4,2,1,2,1,2,7
12_002,YA,B,145,2,variable,1,2,4,1,3,2596,0.4396,0.7142,0,0,0,4,3,1,2,2,1,3,5
12_002,YA,B,146,2,variable,1,2,4,1,4,2600,0.5063,0.4209,0,0,0,3,4,1,2,2,1,4,2
12_002,YA,B,147,2,variable,1,2,4,1,0,2600,0.6513,0.5417,0,0,0,3,4,1,2,2,1,0,6
12_002,YA,B,148,2,variable,1,2,4,1,4,2604,0.8568,0.2435,0,0,0,4,3,1,2,2,1,4,6
12_002,YA,B,149,2,variable,5,2,3,2,6,2634,0.4831,0.3252,0,0,0,3,4,1,2,2,1,6,6
12_002,YA,B,150,2,variable,5,2,3,2,8,2674,0.4506,0.2772,0,0,0,4,3,1,2,2,1,2,8
12_002,YA,B,151,2,variable,1,1,2,2,8,2682,1.0784,0.929,0,0,0,1,2,1,2,2,1,1,8
12_002,YA,B,152,2,variable,1,2,4,1,0,2682,0.8343,0.3001,0,0,0,3,4,2,1,2,1,0,8
12_002,YA,B,153,2,variable,1,2,4,1,0,2682,0.6064,0.441,0,0,0,3,4,2,1,2,1,0,7
12_002,YA,B,154,2,variable,1,2,4,1,3,2685,0.7883,0.3586,0,0,0,4,3,2,1,2,1,3,7
12_002,YA,B,155,2,variable,5,2,3,2,8,2725,0.6554,0.2661,0,0,0,4,3,2,1,2,1,4,8
12_002,YA,B,156,2,variable,5,2,3,2,8,2765,0.509,0.9193,0,0,0,3,4,2,1,2,1,4,8
12_002,YA,B,157,2,variable,5,1,2,1,6,2795,0.5059,0.6124,0,0,0,1,2,2,1,2,1,6,8
12_002,YA,B,158,2,variable,5,1,2,1,4,2815,0.6659,0.3398,0,0,0,1,2,2,1,2,1,4,8
12_002,YA,B,159,2,variable,1,1,2,1,4,2819,0.4116,0.2941,0,0,0,1,2,2,1,2,1,4,5
12_002,YA,B,160,2,variable,5,1,1,2,5,2844,0.9503,0.3198,0,0,0,2,1,2,1,2,1,8,5
12_002,YA,B,161,3,stable,5,2,3,2,6,2874,0.924,0.4386,0,0,0,4,3,2,1,2,1,6,6
12_002,YA,B,162,3,stable,5,1,1,2,7,2909,0.8361,0.8866,0,0,0,2,1,2,1,2,1,6,7
12_002,YA,B,163,3,stable,5,1,1,2,7,2944,0.5056,0.2356,0,0,0,1,2,2,1,2,1,8,7
12_002,YA,B,164,3,stable,1,1,2,1,7,2951,0.8233,0.7779,0,0,0,1,2,2,1,2,1,7,4
12_002,YA,B,165,3,stable,1,2,4,1,9,2960,0.7496,0.3354,0,0,0,4,3,2,1,2,1,9,8
12_002,YA,B,166,3,stable,5,2,4,1,7,2995,0.9855,0.3162,0,0,0,4,3,2,1,2,1,7,5
12_002,YA,B,167,3,stable,1,2,3,2,6,3001,0.4394,0.7219,0,0,0,4,3,2,1,2,1,6,6
12_002,YA,B,168,3,stable,1,2,3,2,8,3009,0.5435,0.458,0,0,0,3,4,2,1,2,1,6,8
12_002,YA,B,169,3,stable,1,2,3,2,7,3016,0.6454,0.3599,0,0,0,3,4,2,1,2,1,8,7
12_002,YA,B,170,3,stable,5,1,1,2,8,3056,1.1644,0.2786,0,0,0,1,2,2,1,2,1,5,8
12_002,YA,B,171,3,stable,1,2,4,1,3,3059,0.6736,0.2682,0,0,0,3,4,2,1,2,1,3,9
12_002,YA,B,172,3,stable,5,2,3,2,8,3099,0.4046,0.2468,0,0,0,3,4,2,1,2,1,5,8
12_002,YA,B,173,3,stable,5,1,1,2,4,3119,0.6415,0.6761,0,0,0,1,2,2,1,2,1,6,4
12_002,YA,B,174,3,stable,1,1,1,2,2,3121,0.9882,1.0304,0,0,0,2,1,2,1,2,1,4,2
12_002,YA,B,175,3,stable,1,1,1,2,3,3124,0.5763,0.3871,0,0,0,2,1,2,1,2,1,4,3
12_002,YA,B,176,3,stable,1,1,1,2,2,3126,0.707,0.4138,0,0,0,1,2,2,1,2,1,4,2
12_002,YA,B,177,3,stable,1,1,1,2,4,3130,0.4389,0.3059,0,0,0,2,1,2,1,2,1,5,4
12_002,YA,B,178,3,stable,1,2,3,2,4,3134,0.5612,0.2679,0,0,0,4,3,2,1,2,1,3,4
12_002,YA,B,179,3,stable,1,2,3,2,2,3136,0.4828,0.3487,0,0,0,3,4,2,1,2,1,1,2
12_002,YA,B,180,3,stable,5,1,2,1,1,3141,0.79,0.2486,0,0,0,2,1,2,1,2,1,1,5
12_002,YA,B,181,3,stable,5,1,1,2,4,3161,0.8428,0.3895,0,0,0,2,1,2,1,2,1,3,4
12_002,YA,B,182,3,stable,5,1,1,2,2,3171,0.8773,0.2799,0,0,0,1,2,2,1,2,1,5,2
12_002,YA,B,183,3,stable,5,1,2,1,8,3211,0.961,0.3717,0,0,0,2,1,2,1,2,1,8,2
12_002,YA,B,184,3,stable,5,2,4,1,6,3241,0.7909,0.2815,0,0,0,3,4,2,1,2,1,6,1
12_002,YA,B,185,3,stable,5,2,4,1,8,3281,0.5903,0.3369,0,0,0,4,3,2,1,2,1,8,1
12_002,YA,B,186,3,stable,5,2,4,1,7,3316,0.5715,0.5101,0,0,0,3,4,2,1,2,1,7,3
12_002,YA,B,187,3,stable,1,2,3,2,2,3318,0.7546,0.4611,0,0,0,3,4,2,1,2,1,6,2
12_002,YA,B,188,3,stable,5,2,4,1,7,3353,0.519,0.3778,0,0,0,3,4,2,1,2,1,7,0
12_002,YA,B,189,3,stable,1,1,1,2,1,3354,0.6302,0.416,0,0,0,2,1,2,1,2,1,7,1
12_002,YA,B,190,3,stable,1,1,1,2,0,3354,0.7304,0.6363,0,0,0,2,1,2,1,2,1,5,0
12_002,YA,B,191,3,stable,5,1,2,1,7,3389,0.3985,0.6085,0,0,0,2,1,2,1,2,1,7,0
12_002,YA,B,192,3,stable,5,2,4,1,7,3424,0.5088,0.5513,0,0,0,3,4,2,1,2,1,7,5
12_002,YA,B,193,3,stable,1,1,1,2,3,3427,0.6191,0.4297,0,0,0,1,2,2,1,2,1,7,3
12_002,YA,B,194,3,stable,5,1,2,1,9,3472,0.4219,0.3604,0,0,0,1,2,2,1,2,1,9,5
12_002,YA,B,195,3,stable,1,1,1,2,8,3480,0.5306,0.6606,0,0,0,1,2,2,1,2,1,8,8
12_002,YA,B,196,3,stable,5,2,4,1,6,3510,0.7265,0.361,0,0,0,3,4,2,1,2,1,6,5
12_002,YA,B,197,3,stable,5,1,1,2,4,3530,0.7658,0.2877,0,0,0,2,1,2,1,2,1,5,4
12_002,YA,B,198,3,stable,5,1,2,1,7,3565,0.3915,0.274,0,0,0,2,1,2,1,2,1,7,3
12_002,YA,B,199,3,stable,1,2,3,2,2,3567,1.0225,0.4571,0,0,0,4,3,2,1,2,1,8,2
12_002,YA,B,200,3,stable,1,1,1,2,2,3569,0.683,0.5489,0,0,0,2,1,2,1,2,1,6,2
12_002,YA,B,201,3,stable,1,1,1,2,0,3569,0.6301,0.4233,0,0,0,1,2,2,1,2,1,4,0
12_002,YA,B,202,3,stable,1,2,3,2,3,3572,0.8584,0.2771,0,0,0,4,3,2,1,2,1,4,3
12_002,YA,B,203,3,stable,1,2,3,2,3,3575,1.0139,0.4957,0,0,0,4,3,2,1,2,1,5,3
12_002,YA,B,204,3,stable,1,2,3,2,4,3579,0.5606,0.3712,0,0,0,3,4,2,1,2,1,6,4
12_002,YA,B,205,3,stable,1,1,1,2,3,3582,0.9541,0.3407,0,0,0,1,2,2,1,2,1,3,3
12_002,YA,B,206,3,stable,5,2,4,1,0,3582,0.5816,0.5114,0,0,0,4,3,2,1,2,1,0,3
12_002,YA,B,207,3,stable,1,1,2,1,4,3586,0.7145,0.3643,0,0,0,1,2,2,1,2,1,4,6
12_002,YA,B,208,3,stable,5,2,3,2,6,3616,1.4036,0.4059,0,0,0,4,3,2,1,2,1,3,6
12_002,YA,B,209,3,stable,5,1,1,2,5,3641,0.6994,0.6774,0,0,0,1,2,2,1,2,1,6,5
12_002,YA,B,210,3,stable,1,2,4,1,7,3648,1.02,0.5825,0,0,0,4,3,2,1,2,1,7,8
12_002,YA,B,211,3,stable,5,2,4,1,9,3693,1.0823,0.3002,0,0,0,3,4,2,1,2,1,9,7
12_002,YA,B,212,3,stable,1,2,3,2,9,3702,1.0856,0.2164,0,0,0,4,3,2,1,2,1,7,9
12_002,YA,B,213,3,stable,5,2,4,1,8,3742,0.6017,0.4124,0,0,0,4,3,2,1,2,1,8,9
12_002,YA,B,214,3,stable,1,2,4,1,7,3749,0.7117,0.5304,0,0,0,3,4,2,1,2,1,7,9
12_002,YA,B,215,3,stable,5,1,1,2,8,3789,0.7345,0.3126,0,0,0,2,1,2,1,2,1,7,8
12_002,YA,B,216,3,stable,1,2,4,1,8,3797,0.5312,0.4452,0,0,0,3,4,2,1,2,1,8,7
12_002,YA,B,217,3,stable,5,2,4,1,7,3832,0.6405,0.3152,0,0,0,3,4,2,1,2,1,7,3
12_002,YA,B,218,3,stable,5,1,2,1,8,3872,0.431,0.3527,0,0,0,1,2,2,1,2,1,8,6
12_002,YA,B,219,3,stable,5,2,3,2,8,3912,0.8913,0.4299,0,0,0,4,3,2,1,2,1,8,8
12_002,YA,B,220,3,stable,1,2,3,2,7,3919,0.4565,0.3711,0,0,0,4,3,2,1,2,1,8,7
12_002,YA,B,221,3,stable,1,2,4,1,7,3926,0.6628,0.3047,0,0,0,4,3,2,1,2,1,7,6
12_002,YA,B,222,3,stable,5,2,3,2,4,3946,0.5012,0.3437,0,0,0,4,3,2,1,2,1,7,4
12_002,YA,B,223,3,stable,1,1,1,2,4,3950,0.5515,0.402,0,0,0,2,1,2,1,2,1,6,4
12_002,YA,B,224,3,stable,1,1,1,2,4,3954,0.7291,0.3797,0,0,0,2,1,2,1,2,1,7,4
12_002,YA,B,225,3,stable,5,2,4,1,9,3999,0.643,0.3253,0,0,0,4,3,2,1,2,1,9,6
12_002,YA,B,226,3,stable,5,2,4,1,8,4039,0.4955,0.3862,0,0,0,3,4,2,1,2,1,8,5
12_002,YA,B,227,3,stable,5,1,2,1,7,4074,0.4447,0.3993,0,0,0,1,2,2,1,2,1,7,5
12_002,YA,B,228,3,stable,5,2,4,1,5,4099,0.531,0.5809,0,0,0,4,3,2,1,2,1,5,7
12_002,YA,B,229,3,stable,1,1,2,1,4,4103,0.4028,0.2694,0,0,0,1,2,2,1,2,1,4,5
12_002,YA,B,230,3,stable,5,1,1,2,5,4128,0.4604,0.3431,0,0,0,1,2,2,1,2,1,2,5
12_002,YA,B,231,3,stable,5,1,1,2,3,4143,0.4457,0.288,0,0,0,2,1,2,1,2,1,2,3
12_002,YA,B,232,3,stable,1,1,1,2,2,4145,0.4963,0.4024,0,0,0,1,2,2,1,2,1,1,2
12_002,YA,B,233,3,stable,1,1,1,2,1,4146,0.6516,0.2782,0,0,0,2,1,2,1,2,1,2,1
12_002,YA,B,234,3,stable,1,1,1,2,3,4149,0.6091,0.5077,0,0,0,2,1,2,1,2,1,4,3
12_002,YA,B,235,3,stable,1,2,3,2,0,4149,1.0526,0.9512,0,0,0,3,4,2,1,2,1,5,0
12_002,YA,B,236,3,stable,1,1,1,2,2,4151,0.5535,0.4759,0,0,0,1,2,2,1,2,1,6,2
12_002,YA,B,237,3,stable,5,2,4,1,9,4196,0.598,0.304,0,0,0,3,4,2,1,2,1,9,4
12_002,YA,B,238,3,stable,5,1,2,1,7,4231,0.4574,0.4439,0,0,0,1,2,2,1,2,1,7,3
12_002,YA,B,239,3,stable,5,1,2,1,6,4261,0.4164,0.3385,0,0,0,2,1,2,1,2,1,6,1
12_002,YA,B,240,3,stable,1,2,4,1,6,4267,0.9118,0.8664,0,0,0,3,4,2,1,2,1,6,1
12_002,YA,B,241,4,variable,1,2,3,2,3,4270,1.4551,0.6017,0,0,0,3,4,1,2,2,1,8,3
12_002,YA,B,242,4,variable,5,1,2,2,5,4295,0.8658,0.3957,0,0,0,1,2,1,2,2,1,8,5
12_002,YA,B,243,4,variable,1,1,1,1,7,4302,0.9143,0.6682,0,0,0,2,1,1,2,2,1,7,7
12_002,YA,B,244,4,variable,5,1,1,1,6,4332,0.5522,0.3868,0,0,0,2,1,1,2,2,1,6,6
12_002,YA,B,245,4,variable,5,1,1,1,7,4367,0.4953,0.2979,0,0,0,1,2,1,2,2,1,7,7
12_002,YA,B,246,4,variable,1,1,2,2,7,4374,0.7816,0.3276,0,0,0,1,2,1,2,2,1,4,7
12_002,YA,B,247,4,variable,1,1,2,2,4,4378,0.9879,0.4145,0,0,0,2,1,1,2,2,1,3,4
12_002,YA,B,248,4,variable,1,1,1,1,5,4383,0.6695,0.7361,0,0,0,2,1,1,2,2,1,5,2
12_002,YA,B,249,4,variable,1,1,1,1,2,4385,0.686,0.3366,0,0,0,1,2,1,2,1,2,2,1
12_002,YA,B,250,4,variable,5,1,2,2,0,4385,0.8099,0.2925,0,0,0,2,1,1,2,1,2,2,0
12_002,YA,B,251,4,variable,1,2,4,2,1,4386,1.3678,0.4497,0,0,0,3,4,1,2,1,2,3,1
12_002,YA,B,252,4,variable,1,2,4,2,0,4386,0.852,0.5351,0,0,0,4,3,1,2,1,2,1,0
12_002,YA,B,253,4,variable,1,1,1,1,0,4386,1.1126,0.7951,0,0,0,1,2,1,2,1,2,0,0
12_002,YA,B,254,4,variable,5,2,4,2,2,4396,1.0702,0.4248,0,0,0,4,3,1,2,1,2,1,2
12_002,YA,B,255,4,variable,1,2,3,1,2,4398,0.5387,0.4053,0,0,0,4,3,1,2,1,2,2,5
12_002,YA,B,256,4,variable,5,2,3,1,2,4408,0.5512,0.4178,0,0,0,4,3,1,2,1,2,2,7
12_002,YA,B,257,4,variable,5,2,4,2,8,4448,0.8591,0.3576,0,0,0,3,4,1,2,1,2,4,8
12_002,YA,B,258,4,variable,1,1,1,1,5,4453,0.8969,0.3948,0,0,0,1,2,1,2,1,2,5,9
12_002,YA,B,259,4,variable,1,2,3,1,3,4456,0.7615,0.2841,0,0,0,4,3,1,2,1,2,3,7
12_002,YA,B,260,4,variable,1,1,2,1,5,4461,0.6122,0.6147,0,0,0,2,1,2,1,1,2,5,5
12_002,YA,B,261,4,variable,1,1,2,1,8,4469,0.8193,0.3899,0,0,0,2,1,2,1,1,2,8,6
12_002,YA,B,262,4,variable,1,1,1,2,3,4472,0.4972,0.3071,0,0,0,2,1,2,1,1,2,8,3
12_002,YA,B,263,4,variable,1,1,1,2,3,4475,0.5,0.3101,0,0,0,1,2,2,1,1,2,9,3
12_002,YA,B,264,4,variable,5,2,3,1,8,4515,1.1587,0.3932,0,0,0,3,4,2,1,1,2,8,0
12_002,YA,B,265,4,variable,5,1,2,1,7,4550,0.4446,0.3832,0,0,0,1,2,2,1,1,2,7,1
12_002,YA,B,266,4,variable,5,2,3,1,6,4580,0.5789,0.3821,0,0,0,3,4,2,1,1,2,6,3
12_002,YA,B,267,4,variable,1,1,1,2,4,4584,0.7463,0.2922,0,0,0,2,1,2,1,1,2,5,4
12_002,YA,B,268,4,variable,1,1,1,2,5,4589,0.5319,0.3498,0,0,0,1,2,2,1,1,2,3,5
12_002,YA,B,269,4,variable,1,2,4,2,6,4595,1.2357,0.4384,0,0,0,3,4,1,2,1,2,1,6
12_002,YA,B,270,4,variable,5,2,4,2,5,4620,0.9798,0.3657,0,0,0,4,3,1,2,1,2,2,5
12_002,YA,B,271,4,variable,1,2,3,1,4,4624,0.4997,0.3016,0,0,0,3,4,1,2,1,2,4,3
12_002,YA,B,272,4,variable,5,1,1,1,2,4634,0.7966,0.4305,0,0,0,1,2,1,2,1,2,2,2
12_002,YA,B,273,4,variable,1,2,3,1,2,4636,1.2717,0.5144,0,0,0,4,3,1,2,1,2,2,4
12_002,YA,B,274,4,variable,5,1,2,2,5,4661,0.5635,0.4695,0,0,0,2,1,1,2,1,2,1,5
12_002,YA,B,275,4,variable,1,2,4,2,3,4664,0.7233,0.47,0,0,0,3,4,1,2,1,2,6,3
12_002,YA,B,276,4,variable,1,1,1,1,5,4669,0.7501,0.5679,0,0,0,1,2,1,2,1,2,5,5
12_002,YA,B,277,4,variable,5,2,4,2,0,4669,0.8138,0.3358,0,0,0,3,4,1,2,1,2,4,0
12_002,YA,B,278,4,variable,1,2,4,2,2,4671,1.5541,0.5326,0,0,0,4,3,1,2,1,2,5,2
12_002,YA,B,279,4,variable,1,2,4,2,1,4672,0.9338,0.7037,0,0,0,3,4,1,2,1,2,7,1
12_002,YA,B,280,4,variable,5,2,3,1,5,4697,0.4184,0.2846,0,0,0,4,3,1,2,1,2,5,1
12_002,YA,B,281,4,variable,1,2,4,2,1,4698,0.5146,0.3245,0,0,0,4,3,1,2,1,2,5,1
12_002,YA,B,282,4,variable,5,1,1,1,6,4728,0.6715,0.3781,0,0,0,1,2,1,2,2,1,6,3
12_002,YA,B,283,4,variable,5,1,1,1,5,4753,0.6162,0.3855,0,0,0,2,1,1,2,2,1,5,0
12_002,YA,B,284,4,variable,5,1,1,1,5,4778,0.4318,0.3455,0,0,0,1,2,1,2,2,1,5,2
12_002,YA,B,285,4,variable,1,1,2,2,4,4782,0.7439,0.2906,0,0,0,1,2,1,2,2,1,6,4
12_002,YA,B,286,4,variable,1,1,2,2,7,4789,1.2024,0.389,0,0,0,1,2,1,2,2,1,8,7
12_002,YA,B,287,4,variable,1,1,1,1,8,4797,0.7455,1.1318,0,0,0,2,1,1,2,2,1,8,8
12_002,YA,B,288,4,variable,1,2,4,1,8,4805,0.5905,0.3051,0,0,0,4,3,1,2,2,1,8,9
12_002,YA,B,289,4,variable,5,2,4,1,6,4835,0.4284,0.3434,0,0,0,4,3,1,2,2,1,6,9
12_002,YA,B,290,4,variable,5,1,1,1,3,4850,0.5166,0.3503,0,0,0,2,1,1,2,2,1,3,8
12_002,YA,B,291,4,variable,5,1,2,2,6,4880,0.4465,0.3844,0,0,0,2,1,1,2,2,1,4,6
12_002,YA,B,292,4,variable,5,2,3,2,8,4920,0.8452,0.3199,0,0,0,4,3,1,2,2,1,5,8
12_002,YA,B,293,4,variable,1,1,1,1,3,4923,1.2984,0.5163,0,0,0,1,2,1,2,2,1,3,8
12_002,YA,B,294,4,variable,5,2,3,2,7,4958,0.9249,0.3511,0,0,0,3,4,1,2,2,1,3,7
12_002,YA,B,295,4,variable,1,2,4,1,1,4959,0.7709,0.3415,0,0,0,3,4,1,2,2,1,1,8
12_002,YA,B,296,4,variable,5,1,2,1,3,4974,0.7043,0.363,0,0,0,1,2,2,1,2,1,3,9
12_002,YA,B,297,4,variable,1,1,1,2,8,4982,0.6355,0.5017,0,0,0,2,1,2,1,2,1,0,8
12_002,YA,B,298,4,variable,5,1,1,2,9,5027,1.2883,0.3869,0,0,0,1,2,2,1,2,1,2,9
12_002,YA,B,299,4,variable,1,2,3,2,7,5034,0.6044,0.559,0,0,0,4,3,2,1,2,1,3,7
12_002,YA,B,300,4,variable,5,1,1,2,5,5059,0.5235,0.262,0,0,0,2,1,2,1,2,1,1,5
12_002,YA,B,301,4,variable,5,2,3,2,1,5064,0.5807,0.3505,0,0,0,3,4,2,1,2,1,2,1
12_002,YA,B,302,4,variable,1,2,3,2,1,5065,0.5849,0.3955,0,0,0,3,4,1,2,2,1,2,1
12_002,YA,B,303,4,variable,5,2,4,1,3,5080,0.7665,0.4004,0,0,0,3,4,1,2,2,1,3,0
12_002,YA,B,304,4,variable,5,2,4,1,3,5095,0.6245,0.3951,0,0,0,3,4,1,2,2,1,3,1
12_002,YA,B,305,4,variable,5,1,2,2,1,5100,0.8439,0.3665,0,0,0,2,1,1,2,2,1,3,1
12_002,YA,B,306,4,variable,5,1,2,2,3,5115,1.2569,0.4355,0,0,0,1,2,1,2,2,1,3,3
12_002,YA,B,307,4,variable,5,1,2,2,6,5145,0.4116,0.3183,0,0,0,1,2,1,2,2,1,6,6
12_002,YA,B,308,4,variable,1,2,4,1,8,5153,0.483,0.2929,0,0,0,4,3,1,2,2,1,8,5
12_002,YA,B,309,4,variable,5,1,2,1,8,5193,1.0642,0.4102,0,0,0,2,1,2,1,2,1,8,8
12_002,YA,B,310,4,variable,5,2,3,2,7,5228,0.8294,0.344,0,0,0,3,4,2,1,2,1,7,7
12_002,YA,B,311,4,variable,1,1,2,1,8,5236,0.3157,0.2855,0,0,0,2,1,2,1,2,1,8,7
12_002,YA,B,312,4,variable,5,2,4,1,8,5276,0.6962,0.3141,0,0,0,3,4,2,1,2,1,8,8
12_002,YA,B,313,4,variable,5,2,4,1,8,5316,0.4847,0.4472,0,0,0,4,3,2,1,2,1,8,9
12_002,YA,B,314,4,variable,1,2,3,2,8,5324,0.906,0.2845,0,0,0,3,4,2,1,2,1,8,8
12_002,YA,B,315,4,variable,1,2,4,1,8,5332,0.6232,0.4097,0,0,0,4,3,2,1,2,1,8,6
12_002,YA,B,316,4,variable,5,2,3,2,3,5347,0.4934,0.4237,0,0,0,4,3,2,1,2,1,7,3
12_002,YA,B,317,4,variable,5,1,1,2,4,5367,0.9445,0.379,0,0,0,2,1,2,1,2,1,4,4
12_002,YA,B,318,4,variable,1,2,3,2,2,5369,0.9311,0.7166,0,0,0,3,4,2,1,2,1,5,2
12_002,YA,B,319,4,variable,5,2,3,2,0,5369,1.5419,0.4405,0,0,0,4,3,2,1,2,1,3,0
12_002,YA,B,320,4,variable,5,2,4,1,1,5374,0.6115,0.3341,0,0,0,4,3,2,1,2,1,1,0
12_003,YA,C,1,1,variable,5,2,3,1,6,30,0.8672,1.0493,0,0,0,3,4,1,2,1,2,6,2
12_003,YA,C,2,1,variable,5,1,1,1,3,45,1.0924,1.2584,0,0,0,2,1,1,2,1,2,3,6
12_003,YA,C,3,1,variable,5,1,2,2,3,60,1.2217,0.3322,0,0,0,1,2,1,2,1,2,2,3
12_003,YA,C,4,1,variable,5,1,1,1,4,80,0.8405,0.3916,0,0,0,2,1,1,2,1,2,4,4
12_003,YA,C,5,1,variable,1,2,3,1,4,84,1.7628,0.641,0,0,0,4,3,1,2,1,2,4,3
12_003,YA,C,6,1,variable,1,1,2,2,4,88,0.7727,0.4197,0,0,0,1,2,1,2,1,2,6,4
12_003,YA,C,7,1,variable,1,1,1,1,7,95,0.6955,0.4458,0,0,0,2,1,1,2,2,1,7,3
12_003,YA,C,8,1,variable,5,1,1,1,5,120,0.6793,0.4538,0,0,0,2,1,1,2,2,1,5,3
12_003,YA,C,9,1,variable,1,1,1,1,9,129,0.6172,0.5673,0,0,0,2,1,1,2,2,1,9,2
12_003,YA,C,10,1,variable,1,1,1,1,0,129,0.5682,-1,0,1,1,1,2,1,2,2,1,7,9
12_003,YA,C,11,1,variable,1,2,3,2,7,136,1.2052,0.3075,0,0,0,3,4,1,2,2,1,7,7
12_003,YA,C,12,1,variable,1,1,1,1,8,144,0.6377,0.3636,0,0,0,2,1,1,2,2,1,8,6
12_003,YA,C,13,1,variable,5,2,3,2,4,164,0.7559,0.4358,0,0,0,3,4,1,2,2,1,6,4
12_003,YA,C,14,1,variable,1,1,2,2,5,169,1.1987,0.4776,0,0,0,2,1,1,2,2,1,7,5
12_003,YA,C,15,1,variable,1,2,3,2,4,173,0.6082,0.7191,0,0,0,4,3,1,2,2,1,5,4
12_003,YA,C,16,1,variable,1,1,2,2,6,179,0.6902,0.6888,0,0,0,1,2,1,2,2,1,2,6
12_003,YA,C,17,1,variable,1,2,4,1,1,180,0.7953,0.5055,0,0,0,4,3,1,2,2,1,1,6
12_003,YA,C,18,1,variable,5,1,1,1,1,185,0.5191,0.7257,0,0,0,2,1,1,2,2,1,1,6
12_003,YA,C,19,1,variable,1,2,4,1,1,186,0.9069,0.6174,0,0,0,3,4,1,2,2,1,1,6
12_003,YA,C,20,1,variable,5,1,1,1,1,191,0.7993,0.7335,0,0,0,2,1,1,2,2,1,1,2
12_003,YA,C,21,1,variable,5,2,4,2,2,201,1.2111,0.6491,0,0,0,4,3,1,2,1,2,5,2
12_003,YA,C,22,1,variable,1,2,3,1,6,207,0.7821,0.6208,0,0,0,4,3,1,2,1,2,6,5
12_003,YA,C,23,1,variable,1,1,1,1,8,215,0.6631,0.6134,0,0,0,1,2,1,2,1,2,8,9
12_003,YA,C,24,1,variable,5,2,3,1,7,250,0.5586,0.5736,0,0,0,3,4,1,2,1,2,7,4
12_003,YA,C,25,1,variable,5,2,3,1,8,290,0.5507,0.4448,0,0,0,4,3,1,2,1,2,8,2
12_003,YA,C,26,1,variable,5,2,3,1,8,330,0.5904,0.5088,0,0,0,3,4,1,2,1,2,8,1
12_003,YA,C,27,1,variable,1,1,1,1,8,338,0.7488,0.4672,0,0,0,1,2,1,2,1,2,8,1
12_003,YA,C,28,1,variable,1,2,3,1,0,338,0.6523,-1,0,1,1,3,4,1,2,1,2,4,2
12_003,YA,C,29,1,variable,5,1,1,1,8,378,0.6019,0.3448,0,0,0,2,1,1,2,1,2,8,5
12_003,YA,C,30,1,variable,1,1,1,1,8,386,0.6254,0.3283,0,0,0,1,2,1,2,1,2,8,4
12_003,YA,C,31,1,variable,5,2,3,1,5,411,0.6254,0.5111,0,0,0,3,4,1,2,1,2,5,6
12_003,YA,C,32,1,variable,5,2,3,1,0,411,0.6741,0.2727,0,0,0,4,3,2,1,1,2,0,4
12_003,YA,C,33,1,variable,5,1,2,1,5,436,0.6066,0.5975,0,0,0,2,1,2,1,1,2,5,3
12_003,YA,C,34,1,variable,1,1,2,1,6,442,1.0402,0.3746,0,0,0,2,1,2,1,1,2,6,3
12_003,YA,C,35,1,variable,5,2,4,2,2,452,0.8652,0.3274,0,0,0,3,4,2,1,1,2,8,2
12_003,YA,C,36,1,variable,1,2,3,1,8,460,0.4285,0.4912,0,0,0,3,4,2,1,1,2,8,2
12_003,YA,C,37,1,variable,5,2,3,1,5,485,0.5399,0.3062,0,0,0,4,3,2,1,1,2,5,2
12_003,YA,C,38,1,variable,5,1,1,2,7,520,0.5414,0.6198,0,0,0,1,2,2,1,1,2,5,7
12_003,YA,C,39,1,variable,5,2,3,1,6,550,1.0217,0.66,0,0,0,3,4,1,2,1,2,6,6
12_003,YA,C,40,1,variable,5,1,1,1,7,585,0.7654,0.5236,0,0,0,1,2,1,2,1,2,7,8
12_003,YA,C,41,1,variable,1,2,4,2,7,592,0.9492,0.3872,0,0,0,4,3,1,2,1,2,6,7
12_003,YA,C,42,1,variable,5,2,4,2,7,627,0.6452,0.3637,0,0,0,3,4,1,2,1,2,1,7
12_003,YA,C,43,1,variable,5,2,4,2,5,652,0.7891,0.4043,0,0,0,4,3,1,2,1,2,2,5
12_003,YA,C,44,1,variable,1,2,3,1,2,654,0.9433,0.3338,0,0,0,4,3,1,2,1,2,2,7
12_003,YA,C,45,1,variable,1,2,4,2,8,662,0.5396,0.3777,0,0,0,4,3,1,2,1,2,3,8
12_003,YA,C,46,1,variable,1,2,4,2,8,670,0.547,0.3133,0,0,0,3,4,1,2,1,2,7,8
12_003,YA,C,47,1,variable,5,1,2,2,9,715,1.1867,0.5607,0,0,0,1,2,1,2,1,2,1,9
12_003,YA,C,48,1,variable,5,2,4,2,9,760,0.8576,0.4236,0,0,0,4,3,2,1,1,2,1,9
12_003,YA,C,49,1,variable,5,2,4,2,6,790,0.5118,0.3742,0,0,0,4,3,2,1,1,2,1,6
12_003,YA,C,50,1,variable,5,2,4,2,7,825,0.809,0.2232,0,0,0,4,3,2,1,1,2,0,7
12_003,YA,C,51,1,variable,5,1,1,2,6,855,0.8888,0.5437,0,0,0,2,1,2,1,1,2,2,6
12_003,YA,C,52,1,variable,5,2,3,1,0,855,0.7783,0.4165,0,0,0,4,3,2,1,1,2,0,4
12_003,YA,C,53,1,variable,5,2,4,2,5,880,0.4714,1.6209,0,0,0,3,4,2,1,1,2,4,5
12_003,YA,C,54,1,variable,1,2,4,2,5,885,0.8472,0.6054,0,0,0,4,3,2,1,1,2,4,5
12_003,YA,C,55,1,variable,5,1,2,1,6,915,0.8566,0.4716,0,0,0,1,2,2,1,1,2,6,8
12_003,YA,C,56,1,variable,1,1,2,2,6,921,0.8259,0.4885,0,0,0,2,1,1,2,1,2,5,6
12_003,YA,C,57,1,variable,5,1,2,2,8,961,0.7148,0.8891,0,0,0,2,1,1,2,1,2,5,8
12_003,YA,C,58,1,variable,1,2,4,2,8,969,0.5462,0.3366,0,0,0,3,4,1,2,1,2,5,8
12_003,YA,C,59,1,variable,5,1,2,2,8,1009,0.5295,0.488,0,0,0,1,2,1,2,1,2,4,8
12_003,YA,C,60,1,variable,1,2,4,2,8,1017,0.8411,0.4958,0,0,0,3,4,1,2,1,2,3,8
12_003,YA,C,61,1,variable,1,1,1,1,3,1020,0.6806,0.303,0,0,0,1,2,1,2,1,2,3,8
12_003,YA,C,62,1,variable,1,1,2,2,9,1029,0.6994,0.3058,0,0,0,2,1,1,2,1,2,1,9
12_003,YA,C,63,1,variable,1,2,4,2,8,1037,0.6982,0.5686,0,0,0,3,4,1,2,1,2,4,8
12_003,YA,C,64,1,variable,1,2,4,2,4,1041,0.5857,0.3927,0,0,0,4,3,1,2,1,2,5,4
12_003,YA,C,65,1,variable,1,1,2,2,5,1046,0.6751,0.2896,0,0,0,2,1,1,2,1,2,9,5
12_003,YA,C,66,1,variable,5,1,2,2,7,1081,0.6927,0.2907,0,0,0,1,2,1,2,1,2,8,7
12_003,YA,C,67,1,variable,1,2,4,2,8,1089,0.4368,0.403,0,0,0,3,4,1,2,1,2,8,8
12_003,YA,C,68,1,variable,1,2,4,2,8,1097,0.5882,0.3705,0,0,0,4,3,1,2,1,2,7,8
12_003,YA,C,69,1,variable,5,2,4,2,8,1137,0.3955,0.3302,0,0,0,3,4,2,1,1,2,9,8
12_003,YA,C,70,1,variable,5,2,4,2,8,1177,0.4508,0.3692,0,0,0,4,3,2,1,1,2,8,8
12_003,YA,C,71,1,variable,1,1,2,1,6,1183,0.5225,0.5134,0,0,0,1,2,2,1,1,2,6,8
12_003,YA,C,72,1,variable,1,2,4,2,6,1189,0.6598,0.5789,0,0,0,3,4,2,1,1,2,7,6
12_003,YA,C,73,1,variable,1,1,2,1,6,1195,1.4204,1.131,0,0,0,2,1,2,1,1,2,6,5
12_003,YA,C,74,1,variable,1,1,2,1,2,1197,0.5657,0.4037,0,0,0,1,2,2,1,1,2,2,5
12_003,YA,C,75,1,variable,5,1,1,2,6,1227,0.7609,0.6392,0,0,0,1,2,2,1,1,2,1,6
12_003,YA,C,76,1,variable,5,1,1,2,8,1267,1.2177,0.3999,0,0,0,1,2,2,1,1,2,1,8
12_003,YA,C,77,1,variable,5,1,1,2,7,1302,0.4811,0.8314,0,0,0,1,2,2,1,1,2,2,7
12_003,YA,C,78,1,variable,1,1,1,2,6,1308,0.4494,0.2717,0,0,0,2,1,2,1,1,2,0,6
12_003,YA,C,79,1,variable,1,1,1,2,2,1310,0.4019,1.5363,0,0,0,1,2,2,1,1,2,3,2
12_003,YA,C,80,1,variable,5,1,2,1,6,1340,0.6535,0.2999,0,0,0,2,1,2,1,1,2,6,3
12_003,YA,C,81,2,stable,1,1,1,2,1,1341,0.565,0.8035,0,0,0,1,2,2,1,1,2,6,1
12_003,YA,C,82,2,stable,1,1,2,1,8,1349,0.825,0.4237,0,0,0,2,1,2,1,1,2,8,1
12_003,YA,C,83,2,stable,1,2,4,2,4,1353,0.5605,0.4548,0,0,0,3,4,2,1,1,2,6,4
12_003,YA,C,84,2,stable,5,1,2,1,9,1398,0.6034,0.7452,0,0,0,2,1,2,1,1,2,9,2
12_003,YA,C,85,2,stable,1,2,4,2,4,1402,0.9535,0.8077,0,0,0,3,4,2,1,1,2,7,4
12_003,YA,C,86,2,stable,1,1,1,2,7,1409,0.5395,0.5145,0,0,0,2,1,2,1,1,2,9,7
12_003,YA,C,87,2,stable,5,1,1,2,7,1444,0.6361,0.4267,0,0,0,1,2,2,1,1,2,9,7
12_003,YA,C,88,2,stable,1,2,4,2,8,1452,0.7718,0.5863,0,0,0,3,4,2,1,1,2,6,8
12_003,YA,C,89,2,stable,5,2,4,2,9,1497,0.6036,0.4496,0,0,0,3,4,2,1,1,2,3,9
12_003,YA,C,90,2,stable,5,2,3,1,1,1502,0.6743,0.4723,0,0,0,4,3,2,1,1,2,1,8
12_003,YA,C,91,2,stable,5,2,4,2,6,1532,0.3662,0.5804,0,0,0,3,4,2,1,1,2,3,6
12_003,YA,C,92,2,stable,1,2,4,2,8,1540,0.423,0.4298,0,0,0,4,3,2,1,1,2,0,8
12_003,YA,C,93,2,stable,1,2,4,2,7,1547,0.6549,0.4296,0,0,0,4,3,2,1,1,2,4,7
12_003,YA,C,94,2,stable,1,1,1,2,7,1554,0.3751,0.4938,0,0,0,2,1,2,1,1,2,7,7
12_003,YA,C,95,2,stable,5,2,4,2,8,1594,0.5191,0.7335,0,0,0,4,3,2,1,1,2,9,8
12_003,YA,C,96,2,stable,5,1,1,2,6,1624,0.3829,0.5251,0,0,0,2,1,2,1,1,2,8,6
12_003,YA,C,97,2,stable,5,1,1,2,8,1664,0.5439,0.2774,0,0,0,1,2,2,1,1,2,8,8
12_003,YA,C,98,2,stable,1,1,1,2,2,1666,0.5104,0.9167,0,0,0,2,1,2,1,1,2,8,2
12_003,YA,C,99,2,stable,5,2,3,1,7,1701,0.5698,0.3042,0,0,0,3,4,2,1,1,2,7,2
12_003,YA,C,100,2,stable,1,2,3,1,6,1707,0.9058,0.6169,0,0,0,4,3,2,1,1,2,6,1
12_003,YA,C,101,2,stable,5,2,3,1,7,1742,0.7474,0.2659,0,0,0,4,3,2,1,1,2,7,1
12_003,YA,C,102,2,stable,5,1,2,1,5,1767,0.6353,0.3539,0,0,0,2,1,2,1,1,2,5,5
12_003,YA,C,103,2,stable,1,1,2,1,3,1770,0.7411,0.4434,0,0,0,2,1,2,1,1,2,3,3
12_003,YA,C,104,2,stable,5,2,4,2,3,1785,0.6635,0.2619,0,0,0,3,4,2,1,1,2,0,3
12_003,YA,C,105,2,stable,5,1,2,1,2,1795,0.7624,0.2894,0,0,0,2,1,2,1,1,2,2,3
12_003,YA,C,106,2,stable,5,1,2,1,2,1805,0.3897,0.3809,0,0,0,1,2,2,1,1,2,2,3
12_003,YA,C,107,2,stable,1,2,4,2,1,1806,0.37,0.2963,0,0,0,4,3,2,1,1,2,6,1
12_003,YA,C,108,2,stable,1,1,2,1,7,1813,0.7819,0.3485,0,0,0,2,1,2,1,1,2,7,1
12_003,YA,C,109,2,stable,5,1,2,1,7,1848,0.8301,0.3644,0,0,0,2,1,2,1,1,2,7,1
12_003,YA,C,110,2,stable,1,2,4,2,4,1852,0.4222,0.4299,0,0,0,4,3,2,1,1,2,6,4
12_003,YA,C,111,2,stable,1,1,2,1,4,1856,0.5289,0.2793,0,0,0,1,2,2,1,1,2,4,8
12_003,YA,C,112,2,stable,5,1,2,1,7,1891,0.4833,0.2415,0,0,0,1,2,2,1,1,2,7,7
12_003,YA,C,113,2,stable,1,1,2,1,6,1897,0.372,0.3542,0,0,0,1,2,2,1,1,2,6,6
12_003,YA,C,114,2,stable,1,2,4,2,5,1902,0.7087,0.227,0,0,0,3,4,2,1,1,2,6,5
12_003,YA,C,115,2,stable,5,1,2,1,8,1942,0.4624,0.2844,0,0,0,1,2,2,1,1,2,8,3
12_003,YA,C,116,2,stable,1,1,2,1,7,1949,0.7736,0.2285,0,0,0,2,1,2,1,1,2,7,3
12_003,YA,C,117,2,stable,1,2,3,1,8,1957,0.6941,0.3319,0,0,0,4,3,2,1,1,2,8,4
12_003,YA,C,118,2,stable,1,1,2,1,7,1964,0.3811,0.8281,0,0,0,1,2,2,1,1,2,7,4
12_003,YA,C,119,2,stable,1,2,3,1,6,1970,0.4854,0.3317,0,0,0,3,4,2,1,1,2,6,1
12_003,YA,C,120,2,stable,1,1,1,2,1,1971,0.4223,0.2529,0,0,0,1,2,2,1,1,2,7,1
12_003,YA,C,121,2,stable,1,2,3,1,7,1978,0.6507,0.529,0,0,0,3,4,2,1,1,2,7,3
12_003,YA,C,122,2,stable,5,1,2,1,9,2023,0.459,0.3214,0,0,0,2,1,2,1,1,2,9,3
12_003,YA,C,123,2,stable,5,2,3,1,8,2063,0.7375,0.4328,0,0,0,3,4,2,1,1,2,8,3
12_003,YA,C,124,2,stable,5,1,2,1,8,2103,0.8654,0.3755,0,0,0,1,2,2,1,1,2,8,4
12_003,YA,C,125,2,stable,5,1,2,1,6,2133,0.6879,1.4295,0,0,0,2,1,2,1,1,2,6,3
12_003,YA,C,126,2,stable,5,2,3,1,7,2168,0.6648,0.2144,0,0,0,4,3,2,1,1,2,7,4
12_003,YA,C,127,2,stable,1,1,1,2,7,2175,0.4889,0.3024,0,0,0,2,1,2,1,1,2,7,7
12_003,YA,C,128,2,stable,5,1,1,2,6,2205,0.5444,0.2785,0,0,0,1,2,2,1,1,2,5,6
12_003,YA,C,129,2,stable,5,1,1,2,8,2245,0.3692,0.2392,0,0,0,2,1,2,1,1,2,6,8
12_003,YA,C,130,2,stable,5,2,4,2,7,2280,0.4086,0.2309,0,0,0,4,3,2,1,1,2,7,7
12_003,YA,C,131,2,stable,1,1,2,1,7,2287,0.5049,0.3431,0,0,0,2,1,2,1,1,2,7,6
12_003,YA,C,132,2,stable,5,2,4,2,7,2322,0.3686,0.2784,0,0,0,3,4,2,1,1,2,8,7
12_003,YA,C,133,2,stable,1,2,4,2,8,2330,0.4887,0.2392,0,0,0,3,4,2,1,1,2,7,8
12_003,YA,C,134,2,stable,1,1,1,2,8,2338,0.4003,0.343,0,0,0,1,2,2,1,1,2,7,8
12_003,YA,C,135,2,stable,1,2,4,2,8,2346,0.5924,0.3181,0,0,0,4,3,2,1,1,2,6,8
12_003,YA,C,136,2,stable,1,1,1,2,5,2351,0.3832,0.2773,0,0,0,1,2,2,1,1,2,5,5
12_003,YA,C,137,2,stable,1,1,2,1,0,2351,0.3771,0.319,0,0,0,1,2,2,1,1,2,0,8
12_003,YA,C,138,2,stable,1,2,4,2,7,2358,0.3566,0.4511,0,0,0,4,3,2,1,1,2,1,7
12_003,YA,C,139,2,stable,5,1,1,2,6,2388,0.3887,0.2919,0,0,0,2,1,2,1,1,2,2,6
12_003,YA,C,140,2,stable,5,1,1,2,5,2413,1.1094,0.3398,0,0,0,2,1,2,1,1,2,0,5
12_003,YA,C,141,2,stable,5,1,1,2,4,2433,0.4392,0.2454,0,0,0,1,2,2,1,1,2,0,4
12_003,YA,C,142,2,stable,5,2,3,1,1,2438,0.5929,0.3354,0,0,0,4,3,2,1,1,2,1,7
12_003,YA,C,143,2,stable,5,2,4,2,7,2473,0.3495,0.2835,0,0,0,4,3,2,1,1,2,1,7
12_003,YA,C,144,2,stable,1,2,4,2,7,2480,0.5737,0.2923,0,0,0,3,4,2,1,1,2,2,7
12_003,YA,C,145,2,stable,5,2,4,2,5,2505,0.3497,0.3161,0,0,0,4,3,2,1,1,2,3,5
12_003,YA,C,146,2,stable,5,2,4,2,2,2515,0.3749,0.3573,0,0,0,3,4,2,1,1,2,4,2
12_003,YA,C,147,2,stable,5,2,4,2,6,2545,0.3304,0.3286,0,0,0,3,4,2,1,1,2,0,6
12_003,YA,C,148,2,stable,5,2,4,2,6,2575,0.3953,0.2822,0,0,0,4,3,2,1,1,2,4,6
12_003,YA,C,149,2,stable,1,2,3,1,6,2581,0.6367,0.2904,0,0,0,3,4,2,1,1,2,6,6
12_003,YA,C,150,2,stable,1,2,3,1,2,2583,0.5491,0.3711,0,0,0,4,3,2,1,1,2,2,8
12_003,YA,C,151,2,stable,5,1,1,2,8,2623,0.4001,0.5584,0,0,0,1,2,2,1,1,2,1,8
12_003,YA,C,152,2,stable,5,2,4,2,8,2663,0.5836,0.414,0,0,0,3,4,2,1,1,2,0,8
12_003,YA,C,153,2,stable,5,2,4,2,7,2698,0.4068,0.3178,0,0,0,3,4,2,1,1,2,0,7
12_003,YA,C,154,2,stable,5,2,4,2,7,2733,0.519,0.3814,0,0,0,4,3,2,1,1,2,3,7
12_003,YA,C,155,2,stable,1,2,4,2,8,2741,0.5672,0.2535,0,0,0,4,3,2,1,1,2,4,8
12_003,YA,C,156,2,stable,1,2,3,1,4,2745,0.4952,0.269,0,0,0,3,4,2,1,1,2,4,8
12_003,YA,C,157,2,stable,1,1,1,2,8,2753,0.3688,0.2792,0,0,0,1,2,2,1,1,2,6,8
12_003,YA,C,158,2,stable,1,1,1,2,8,2761,0.3283,0.3188,0,0,0,1,2,2,1,1,2,4,8
12_003,YA,C,159,2,stable,5,1,1,2,5,2786,0.3043,0.2701,0,0,0,1,2,2,1,1,2,4,5
12_003,YA,C,160,2,stable,1,1,2,1,8,2794,0.3054,0.4081,0,0,0,2,1,2,1,1,2,8,5
12_003,YA,C,161,3,variable,1,2,4,2,6,2800,0.9575,0.7394,0,0,0,4,3,1,2,1,2,6,6
12_003,YA,C,162,3,variable,1,1,1,1,6,2806,0.6458,0.4202,0,0,0,2,1,1,2,1,2,6,7
12_003,YA,C,163,3,variable,1,1,1,1,8,2814,0.495,0.3973,0,0,0,1,2,1,2,1,2,8,7
12_003,YA,C,164,3,variable,5,1,2,2,4,2834,0.51,0.4524,0,0,0,1,2,1,2,1,2,7,4
12_003,YA,C,165,3,variable,5,2,4,2,8,2874,0.4642,0.6947,0,0,0,4,3,1,2,1,2,9,8
12_003,YA,C,166,3,variable,1,2,3,1,7,2881,0.5115,0.6383,0,0,0,4,3,1,2,1,2,7,5
12_003,YA,C,167,3,variable,5,2,4,2,6,2911,0.7757,0.51,0,0,0,4,3,1,2,1,2,6,6
12_003,YA,C,168,3,variable,5,2,4,2,8,2951,0.8006,0.5833,0,0,0,3,4,1,2,1,2,6,8
12_003,YA,C,169,3,variable,5,2,3,1,8,2991,0.7758,0.5022,0,0,0,3,4,1,2,1,2,8,7
12_003,YA,C,170,3,variable,1,1,1,1,5,2996,0.4795,0.9176,0,0,0,1,2,1,2,1,2,5,8
12_003,YA,C,171,3,variable,5,2,4,2,9,3041,0.6967,0.5519,0,0,0,3,4,1,2,1,2,3,9
12_003,YA,C,172,3,variable,1,2,4,2,8,3049,1.4474,0.5182,0,0,0,3,4,1,2,1,2,5,8
12_003,YA,C,173,3,variable,1,1,2,2,4,3053,0.5109,0.4301,0,0,0,1,2,1,2,1,2,6,4
12_003,YA,C,174,3,variable,5,1,2,2,2,3063,0.9772,0.6315,0,0,0,2,1,1,2,1,2,4,2
12_003,YA,C,175,3,variable,5,1,1,2,3,3078,0.5244,0.6271,0,0,0,2,1,2,1,1,2,4,3
12_003,YA,C,176,3,variable,5,1,2,1,4,3098,0.8553,0.3663,0,0,0,1,2,2,1,1,2,4,2
12_003,YA,C,177,3,variable,5,1,2,1,5,3123,0.922,0.4011,0,0,0,2,1,2,1,1,2,5,4
12_003,YA,C,178,3,variable,5,2,4,2,4,3143,1.1244,0.4986,0,0,0,4,3,2,1,1,2,3,4
12_003,YA,C,179,3,variable,5,2,4,2,2,3153,0.6631,0.597,0,0,0,3,4,2,1,1,2,1,2
12_003,YA,C,180,3,variable,1,1,2,1,1,3154,0.6421,0.7444,0,0,0,2,1,2,1,1,2,1,5
12_003,YA,C,181,3,variable,1,1,1,2,4,3158,0.5498,0.453,0,0,0,2,1,2,1,1,2,3,4
12_003,YA,C,182,3,variable,1,1,1,2,2,3160,0.8402,0.4231,0,0,0,1,2,2,1,1,2,5,2
12_003,YA,C,183,3,variable,1,1,2,1,8,3168,0.8354,0.6978,0,0,0,2,1,2,1,2,1,8,2
12_003,YA,C,184,3,variable,1,2,3,2,1,3169,0.4192,0.6334,0,0,0,3,4,2,1,2,1,6,1
12_003,YA,C,185,3,variable,1,2,4,1,8,3177,0.9909,0.5652,0,0,0,4,3,2,1,2,1,8,1
12_003,YA,C,186,3,variable,1,2,4,1,7,3184,1.2303,0.4687,0,0,0,3,4,2,1,2,1,7,3
12_003,YA,C,187,3,variable,5,2,4,1,6,3214,0.8223,0.373,0,0,0,3,4,2,1,2,1,6,2
12_003,YA,C,188,3,variable,1,2,4,1,7,3221,0.5914,0.3185,0,0,0,3,4,2,1,2,1,7,0
12_003,YA,C,189,3,variable,5,1,2,1,7,3256,0.6395,0.3743,0,0,0,2,1,2,1,2,1,7,1
12_003,YA,C,190,3,variable,5,1,2,1,5,3281,0.6082,0.3992,0,0,0,2,1,2,1,2,1,5,0
12_003,YA,C,191,3,variable,1,1,2,1,7,3288,0.9777,0.5359,0,0,0,2,1,2,1,2,1,7,0
12_003,YA,C,192,3,variable,1,2,4,1,7,3295,0.6097,0.3528,0,0,0,3,4,2,1,2,1,7,5
12_003,YA,C,193,3,variable,5,1,2,1,7,3330,0.3944,1.3362,0,0,0,1,2,2,1,2,1,7,3
12_003,YA,C,194,3,variable,1,1,1,2,5,3335,0.7387,0.3444,0,0,0,1,2,2,1,2,1,9,5
12_003,YA,C,195,3,variable,5,1,2,2,8,3375,0.4838,0.7138,0,0,0,1,2,1,2,2,1,8,8
12_003,YA,C,196,3,variable,1,2,3,2,5,3380,0.7389,0.946,0,0,0,3,4,1,2,2,1,6,5
12_003,YA,C,197,3,variable,1,1,1,1,5,3385,0.7413,0.3956,0,0,0,2,1,1,2,2,1,5,4
12_003,YA,C,198,3,variable,1,1,2,2,3,3388,0.6865,0.3727,0,0,0,2,1,1,2,2,1,7,3
12_003,YA,C,199,3,variable,5,2,3,2,2,3398,1.1611,0.4882,0,0,0,4,3,1,2,2,1,8,2
12_003,YA,C,200,3,variable,5,1,1,1,6,3428,1.1006,0.3234,0,0,0,2,1,1,2,2,1,6,2
12_003,YA,C,201,3,variable,5,1,1,1,4,3448,0.8614,0.3638,0,0,0,1,2,1,2,2,1,4,0
12_003,YA,C,202,3,variable,5,2,4,1,4,3468,0.9836,0.3739,0,0,0,4,3,1,2,2,1,4,3
12_003,YA,C,203,3,variable,5,2,3,2,3,3483,0.8178,0.2398,0,0,0,4,3,1,2,2,1,5,3
12_003,YA,C,204,3,variable,5,2,4,1,6,3513,0.8451,0.2188,0,0,0,3,4,1,2,2,1,6,4
12_003,YA,C,205,3,variable,5,1,1,1,3,3528,0.7573,0.2834,0,0,0,1,2,1,2,2,1,3,3
12_003,YA,C,206,3,variable,1,2,3,2,3,3531,0.9682,0.2145,0,0,0,4,3,2,1,2,1,0,3
12_003,YA,C,207,3,variable,5,1,1,2,6,3561,0.939,0.265,0,0,0,1,2,2,1,2,1,4,6
12_003,YA,C,208,3,variable,1,2,4,1,3,3564,0.8594,0.322,0,0,0,4,3,2,1,2,1,3,6
12_003,YA,C,209,3,variable,1,1,2,1,6,3570,0.4063,0.5332,0,0,0,1,2,2,1,2,1,6,5
12_003,YA,C,210,3,variable,5,2,3,2,8,3610,0.9917,1.0862,0,0,0,4,3,2,1,2,1,7,8
12_003,YA,C,211,3,variable,1,2,3,2,7,3617,0.6633,0.7174,0,0,0,3,4,2,1,2,1,9,7
12_003,YA,C,212,3,variable,5,2,4,1,7,3652,0.7273,0.2617,0,0,0,4,3,2,1,2,1,7,9
12_003,YA,C,213,3,variable,1,2,3,1,8,3660,0.7678,0.2537,0,0,0,4,3,2,1,1,2,8,9
12_003,YA,C,214,3,variable,5,2,3,1,7,3695,0.479,0.2299,0,0,0,3,4,2,1,1,2,7,9
12_003,YA,C,215,3,variable,1,1,2,1,7,3702,0.455,0.3971,0,0,0,2,1,2,1,1,2,7,8
12_003,YA,C,216,3,variable,5,2,3,1,8,3742,0.767,0.3098,0,0,0,3,4,2,1,1,2,8,7
12_003,YA,C,217,3,variable,1,2,3,1,7,3749,0.6304,0.3802,0,0,0,3,4,2,1,1,2,7,3
12_003,YA,C,218,3,variable,1,1,2,1,8,3757,0.6462,0.3241,0,0,0,1,2,2,1,1,2,8,6
12_003,YA,C,219,3,variable,1,2,3,1,8,3765,0.7981,0.4445,0,0,0,4,3,2,1,1,2,8,8
12_003,YA,C,220,3,variable,5,2,3,1,8,3805,0.6127,0.5792,0,0,0,4,3,2,1,1,2,8,7
12_003,YA,C,221,3,variable,5,2,3,1,7,3840,0.5241,0.2985,0,0,0,4,3,2,1,1,2,7,6
12_003,YA,C,222,3,variable,1,2,3,1,7,3847,0.4124,0.2746,0,0,0,4,3,1,2,1,2,7,4
12_003,YA,C,223,3,variable,5,1,2,2,4,3867,0.6285,0.7149,0,0,0,2,1,1,2,1,2,6,4
12_003,YA,C,224,3,variable,5,1,1,1,7,3902,0.4705,0.3411,0,0,0,2,1,1,2,1,2,7,4
12_003,YA,C,225,3,variable,1,2,4,2,6,3908,0.4705,0.3734,0,0,0,4,3,1,2,1,2,9,6
12_003,YA,C,226,3,variable,1,2,3,1,8,3916,0.6634,0.3338,0,0,0,3,4,1,2,1,2,8,5
12_003,YA,C,227,3,variable,1,1,1,1,7,3923,0.8234,0.2858,0,0,0,1,2,1,2,1,2,7,5
12_003,YA,C,228,3,variable,1,2,3,1,5,3928,0.8956,0.4385,0,0,0,4,3,2,1,1,2,5,7
12_003,YA,C,229,3,variable,5,1,1,2,5,3953,0.8972,0.2795,0,0,0,1,2,2,1,1,2,4,5
12_003,YA,C,230,3,variable,1,1,2,1,2,3955,0.6427,0.2969,0,0,0,1,2,2,1,1,2,2,5
12_003,YA,C,231,3,variable,1,1,1,2,3,3958,0.7498,0.2524,0,0,0,2,1,2,1,1,2,2,3
12_003,YA,C,232,3,variable,5,1,2,1,1,3963,1.2647,0.5199,0,0,0,1,2,2,1,1,2,1,2
12_003,YA,C,233,3,variable,5,1,1,2,1,3968,0.7817,0.3158,0,0,0,2,1,2,1,1,2,2,1
12_003,YA,C,234,3,variable,5,1,1,2,3,3983,0.6016,0.3193,0,0,0,2,1,2,1,1,2,4,3
12_003,YA,C,235,3,variable,5,2,4,2,0,3983,0.9556,0.57,0,0,0,3,4,2,1,1,2,5,0
12_003,YA,C,236,3,variable,5,1,2,1,6,4013,0.6959,0.2462,0,0,0,1,2,2,1,1,2,6,2
12_003,YA,C,237,3,variable,1,2,3,1,9,4022,0.5132,0.2794,0,0,0,3,4,2,1,1,2,9,4
12_003,YA,C,238,3,variable,1,1,2,1,7,4029,0.4874,0.2937,0,0,0,1,2,2,1,1,2,7,3
12_003,YA,C,239,3,variable,1,1,2,1,6,4035,0.4958,0.2305,0,0,0,2,1,2,1,1,2,6,1
12_003,YA,C,240,3,variable,5,2,3,1,6,4065,0.4884,0.2867,0,0,0,3,4,2,1,1,2,6,1
12_003,YA,C,241,4,stable,5,2,4,2,3,4080,1.3543,0.6809,0,0,0,3,4,2,1,1,2,8,3
12_003,YA,C,242,4,stable,1,1,2,1,8,4088,0.4288,0.3234,0,0,0,1,2,2,1,1,2,8,5
12_003,YA,C,243,4,stable,5,1,2,1,7,4123,0.4687,0.3629,0,0,0,2,1,2,1,1,2,7,7
12_003,YA,C,244,4,stable,1,1,2,1,6,4129,0.5806,0.2434,0,0,0,2,1,2,1,1,2,6,6
12_003,YA,C,245,4,stable,1,1,2,1,7,4136,0.7093,0.2998,0,0,0,1,2,2,1,1,2,7,7
12_003,YA,C,246,4,stable,5,1,2,1,4,4156,0.7257,0.3562,0,0,0,1,2,2,1,1,2,4,7
12_003,YA,C,247,4,stable,5,1,1,2,4,4176,0.5114,0.2778,0,0,0,2,1,2,1,1,2,3,4
12_003,YA,C,248,4,stable,5,1,2,1,5,4201,0.4577,0.224,0,0,0,2,1,2,1,1,2,5,2
12_003,YA,C,249,4,stable,5,1,2,1,2,4211,0.3629,0.3621,0,0,0,1,2,2,1,1,2,2,1
12_003,YA,C,250,4,stable,1,1,1,2,0,4211,0.3266,0.3015,0,0,0,2,1,2,1,1,2,2,0
12_003,YA,C,251,4,stable,5,2,3,1,3,4226,0.5389,0.3218,0,0,0,3,4,2,1,1,2,3,1
12_003,YA,C,252,4,stable,5,2,4,2,0,4226,0.4859,0.2762,0,0,0,4,3,2,1,1,2,1,0
12_003,YA,C,253,4,stable,5,1,2,1,0,4226,0.5296,0.3681,0,0,0,1,2,2,1,1,2,0,0
12_003,YA,C,254,4,stable,1,2,4,2,2,4228,0.4376,0.3801,0,0,0,4,3,2,1,1,2,1,2
12_003,YA,C,255,4,stable,5,2,4,2,5,4253,0.6171,0.3193,0,0,0,4,3,2,1,1,2,2,5
12_003,YA,C,256,4,stable,1,2,4,2,7,4260,0.4584,0.4971,0,0,0,4,3,2,1,1,2,2,7
12_003,YA,C,257,4,stable,1,2,3,1,4,4264,0.7626,0.249,0,0,0,3,4,2,1,1,2,4,8
12_003,YA,C,258,4,stable,5,1,1,2,9,4309,0.3645,0.235,0,0,0,1,2,2,1,1,2,5,9
12_003,YA,C,259,4,stable,5,2,4,2,7,4344,0.3874,0.4021,0,0,0,4,3,2,1,1,2,3,7
12_003,YA,C,260,4,stable,5,1,1,2,5,4369,0.4274,0.3619,0,0,0,2,1,2,1,1,2,5,5
12_003,YA,C,261,4,stable,5,1,1,2,6,4399,0.3653,0.2275,0,0,0,2,1,2,1,1,2,8,6
12_003,YA,C,262,4,stable,5,1,1,2,3,4414,0.3898,1.493,0,0,0,2,1,2,1,1,2,8,3
12_003,YA,C,263,4,stable,5,1,2,1,9,4459,0.5684,0.2392,0,0,0,1,2,2,1,1,2,9,3
12_003,YA,C,264,4,stable,1,2,3,1,8,4467,1.0154,0.3025,0,0,0,3,4,2,1,1,2,8,0
12_003,YA,C,265,4,stable,1,1,2,1,7,4474,0.4306,0.2297,0,0,0,1,2,2,1,1,2,7,1
12_003,YA,C,266,4,stable,1,2,3,1,6,4480,0.871,0.6694,0,0,0,3,4,2,1,1,2,6,3
12_003,YA,C,267,4,stable,5,1,2,1,5,4505,0.5436,0.5502,0,0,0,2,1,2,1,1,2,5,4
12_003,YA,C,268,4,stable,5,1,2,1,3,4520,0.6252,0.2156,0,0,0,1,2,2,1,1,2,3,5
12_003,YA,C,269,4,stable,5,2,4,2,6,4550,0.4127,0.2104,0,0,0,3,4,2,1,1,2,1,6
12_003,YA,C,270,4,stable,1,2,4,2,5,4555,0.5008,0.4111,0,0,0,4,3,2,1,1,2,2,5
12_003,YA,C,271,4,stable,5,2,4,2,3,4570,0.5103,0.3723,0,0,0,3,4,2,1,1,2,4,3
12_003,YA,C,272,4,stable,1,1,2,1,2,4572,0.417,0.3274,0,0,0,1,2,2,1,1,2,2,2
12_003,YA,C,273,4,stable,5,2,4,2,4,4592,0.4289,0.2508,0,0,0,4,3,2,1,1,2,2,4
12_003,YA,C,274,4,stable,1,1,1,2,5,4597,0.3824,0.333,0,0,0,2,1,2,1,1,2,1,5
12_003,YA,C,275,4,stable,5,2,4,2,3,4612,0.3598,0.3101,0,0,0,3,4,2,1,1,2,6,3
12_003,YA,C,276,4,stable,5,1,2,1,5,4637,0.4186,0.2329,0,0,0,1,2,2,1,1,2,5,5
12_003,YA,C,277,4,stable,1,2,3,1,4,4641,0.4369,0.3305,0,0,0,3,4,2,1,1,2,4,0
12_003,YA,C,278,4,stable,5,2,3,1,5,4666,0.7825,0.5406,0,0,0,4,3,2,1,1,2,5,2
12_003,YA,C,279,4,stable,5,2,3,1,7,4701,0.7276,0.2703,0,0,0,3,4,2,1,1,2,7,1
12_003,YA,C,280,4,stable,1,2,4,2,1,4702,0.4318,0.1181,0,0,0,4,3,2,1,1,2,5,1
12_003,YA,C,281,4,stable,5,2,3,1,5,4727,0.4516,0.3461,0,0,0,4,3,2,1,1,2,5,1
12_003,YA,C,282,4,stable,1,1,2,1,6,4733,0.6933,0.9557,0,0,0,1,2,2,1,1,2,6,3
12_003,YA,C,283,4,stable,1,1,2,1,5,4738,0.6383,0.3962,0,0,0,2,1,2,1,1,2,5,0
12_003,YA,C,284,4,stable,1,1,2,1,5,4743,1.0556,0.2865,0,0,0,1,2,2,1,1,2,5,2
12_003,YA,C,285,4,stable,5,1,2,1,0,4743,0.6418,-1,0,1,1,1,2,2,1,1,2,6,4
12_003,YA,C,286,4,stable,5,1,2,1,8,4783,0.6068,0.3254,0,0,0,1,2,2,1,1,2,8,7
12_003,YA,C,287,4,stable,5,1,2,1,8,4823,0.5658,0.2684,0,0,0,2,1,2,1,1,2,8,8
12_003,YA,C,288,4,stable,5,2,3,1,8,4863,0.6613,0.2597,0,0,0,4,3,2,1,1,2,8,9
12_003,YA,C,289,4,stable,1,2,3,1,6,4869,0.5883,0.1938,0,0,0,4,3,2,1,1,2,6,9
12_003,YA,C,290,4,stable,1,1,1,2,8,4877,0.5802,0.2986,0,0,0,2,1,2,1,1,2,3,8
12_003,YA,C,291,4,stable,1,1,1,2,6,4883,0.3316,0.2658,0,0,0,2,1,2,1,1,2,4,6
12_003,YA,C,292,4,stable,1,2,4,2,8,4891,0.4115,0.2264,0,0,0,4,3,2,1,1,2,5,8
12_003,YA,C,293,4,stable,5,1,1,2,8,4931,0.4025,0.2329,0,0,0,1,2,2,1,1,2,3,8
12_003,YA,C,294,4,stable,1,2,4,2,7,4938,0.3864,0.3204,0,0,0,3,4,2,1,1,2,3,7
12_003,YA,C,295,4,stable,5,2,4,2,8,4978,0.4024,0.4965,0,0,0,3,4,2,1,1,2,1,8
12_003,YA,C,296,4,stable,1,1,1,2,9,4987,0.6657,0.4879,0,0,0,1,2,2,1,1,2,3,9
12_003,YA,C,297,4,stable,5,1,1,2,8,5027,0.5121,0.3906,0,0,0,2,1,2,1,1,2,0,8
12_003,YA,C,298,4,stable,1,1,1,2,9,5036,1.008,0.3823,0,0,0,1,2,2,1,1,2,2,9
12_003,YA,C,299,4,stable,5,2,4,2,7,5071,0.3666,0.2447,0,0,0,4,3,2,1,1,2,3,7
12_003,YA,C,300,4,stable,1,1,1,2,5,5076,0.3667,0.269,0,0,0,2,1,2,1,1,2,1,5
12_003,YA,C,301,4,stable,1,2,4,2,1,5077,0.3283,0.3585,0,0,0,3,4,2,1,1,2,2,1
12_003,YA,C,302,4,stable,5,2,3,1,2,5087,0.8273,0.3939,0,0,0,3,4,2,1,1,2,2,1
12_003,YA,C,303,4,stable,1,2,3,1,3,5090,0.463,0.2533,0,0,0,3,4,2,1,1,2,3,0
12_003,YA,C,304,4,stable,1,2,4,2,1,5091,0.3457,0.2479,0,0,0,3,4,2,1,1,2,3,1
12_003,YA,C,305,4,stable,1,1,2,1,3,5094,1.0701,0.3328,0,0,0,2,1,2,1,1,2,3,1
12_003,YA,C,306,4,stable,1,1,2,1,3,5097,0.457,0.2628,0,0,0,1,2,2,1,1,2,3,3
12_003,YA,C,307,4,stable,1,1,2,1,6,5103,0.4354,0.298,0,0,0,1,2,2,1,1,2,6,6
12_003,YA,C,308,4,stable,5,2,3,1,8,5143,0.8601,0.3305,0,0,0,4,3,2,1,1,2,8,5
12_003,YA,C,309,4,stable,1,1,1,2,8,5151,0.3875,0.2579,0,0,0,2,1,2,1,1,2,8,8
12_003,YA,C,310,4,stable,1,2,4,2,7,5158,0.3795,0.2414,0,0,0,3,4,2,1,1,2,7,7
12_003,YA,C,311,4,stable,5,1,1,2,7,5193,0.339,0.4342,0,0,0,2,1,2,1,1,2,8,7
12_003,YA,C,312,4,stable,1,2,4,2,8,5201,0.5721,0.4596,0,0,0,3,4,2,1,1,2,8,8
12_003,YA,C,313,4,stable,1,2,4,2,9,5210,0.3876,0.4738,0,0,0,4,3,2,1,1,2,8,9
12_003,YA,C,314,4,stable,5,2,4,2,8,5250,0.355,0.2243,0,0,0,3,4,2,1,1,2,8,8
12_003,YA,C,315,4,stable,5,2,4,2,6,5280,0.6181,1.7124,0,0,0,4,3,2,1,1,2,8,6
12_003,YA,C,316,4,stable,1,2,3,1,7,5287,0.4669,0.2568,0,0,0,4,3,2,1,1,2,7,3
12_003,YA,C,317,4,stable,1,1,2,1,4,5291,0.6506,0.2651,0,0,0,2,1,2,1,1,2,4,4
12_003,YA,C,318,4,stable,5,2,4,2,2,5301,0.3164,0.2668,0,0,0,3,4,2,1,1,2,5,2
12_003,YA,C,319,4,stable,1,2,4,2,0,5301,0.6158,0.3825,0,0,0,4,3,2,1,1,2,3,0
12_003,YA,C,320,4,stable,1,2,3,1,1,5302,0.4921,0.3385,0,0,0,4,3,2,1,1,2,1,0
12_004,YA,D,1,1,variable,1,2,3,1,6,6,0.9265,0.4011,0,0,0,3,4,1,2,1,2,6,2
12_004,YA,D,2,1,variable,1,1,1,1,3,9,0.7402,0.5506,0,0,0,2,1,1,2,1,2,3,6
12_004,YA,D,3,1,variable,1,1,2,2,3,12,1.1347,0.5446,0,0,0,1,2,1,2,1,2,2,3
12_004,YA,D,4,1,variable,1,1,1,1,4,16,0.6573,0.3959,0,0,0,2,1,1,2,1,2,4,4
12_004,YA,D,5,1,variable,5,2,3,1,4,36,1.188,0.5343,0,0,0,4,3,1,2,1,2,4,3
12_004,YA,D,6,1,variable,5,1,2,2,4,56,1.6137,0.6003,0,0,0,1,2,1,2,1,2,6,4
12_004,YA,D,7,1,variable,5,1,1,1,7,91,0.6309,0.3448,0,0,0,2,1,1,2,2,1,7,3
12_004,YA,D,8,1,variable,1,1,1,1,5,96,0.5812,0.3432,0,0,0,2,1,1,2,2,1,5,3
12_004,YA,D,9,1,variable,5,1,1,1,9,141,0.6777,0.3203,0,0,0,2,1,1,2,2,1,9,2
12_004,YA,D,10,1,variable,5,1,1,1,7,176,0.4805,0.2903,0,0,0,1,2,1,2,2,1,7,9
12_004,YA,D,11,1,variable,5,2,3,2,7,211,0.6551,0.3693,0,0,0,3,4,1,2,2,1,7,7
12_004,YA,D,12,1,variable,5,1,1,1,8,251,0.6779,0.2877,0,0,0,2,1,1,2,2,1,8,6
12_004,YA,D,13,1,variable,1,2,3,2,4,255,0.6343,0.3489,0,0,0,3,4,1,2,2,1,6,4
12_004,YA,D,14,1,variable,5,1,1,1,7,290,0.5239,0.2945,0,0,0,2,1,1,2,2,1,7,5
12_004,YA,D,15,1,variable,5,2,3,2,4,310,0.9153,0.3408,0,0,0,4,3,1,2,2,1,5,4
12_004,YA,D,16,1,variable,5,1,1,1,2,320,0.549,0.4865,0,0,0,1,2,1,2,2,1,2,6
12_004,YA,D,17,1,variable,5,2,3,2,6,350,1.024,0.3783,0,0,0,4,3,1,2,2,1,1,6
12_004,YA,D,18,1,variable,1,1,1,1,1,351,0.5678,0.2824,0,0,0,2,1,1,2,2,1,1,6
12_004,YA,D,19,1,variable,5,2,3,2,6,381,0.9007,0.3346,0,0,0,3,4,1,2,2,1,1,6
12_004,YA,D,20,1,variable,1,1,2,2,2,383,0.4994,0.3419,0,0,0,2,1,1,2,2,1,1,2
12_004,YA,D,21,1,variable,1,2,3,1,5,388,0.4554,0.2738,0,0,0,4,3,1,2,1,2,5,2
12_004,YA,D,22,1,variable,5,2,3,1,6,418,1.001,0.3154,0,0,0,4,3,1,2,1,2,6,5
12_004,YA,D,23,1,variable,5,1,2,2,9,463,1.5282,0.5228,0,0,0,1,2,1,2,1,2,8,9
12_004,YA,D,24,1,variable,1,2,3,1,7,470,0.9251,0.3276,0,0,0,3,4,1,2,1,2,7,4
12_004,YA,D,25,1,variable,1,2,3,1,8,478,0.332,0.2378,0,0,0,4,3,1,2,1,2,8,2
12_004,YA,D,26,1,variable,1,2,3,1,8,486,0.6809,0.3392,0,0,0,3,4,1,2,1,2,8,1
12_004,YA,D,27,1,variable,5,1,2,2,1,491,1.246,0.3687,0,0,0,1,2,1,2,1,2,8,1
12_004,YA,D,28,1,variable,5,2,3,1,4,511,0.8355,0.5176,0,0,0,3,4,1,2,1,2,4,2
12_004,YA,D,29,1,variable,1,1,1,1,8,519,0.7326,0.2389,0,0,0,2,1,1,2,1,2,8,5
12_004,YA,D,30,1,variable,5,1,1,1,8,559,0.3858,0.3325,0,0,0,1,2,1,2,1,2,8,4
12_004,YA,D,31,1,variable,1,2,4,2,6,565,1.0555,0.3856,0,0,0,3,4,1,2,1,2,5,6
12_004,YA,D,32,1,variable,1,2,4,2,4,569,0.5265,0.3532,0,0,0,4,3,2,1,1,2,0,4
12_004,YA,D,33,1,variable,1,1,2,1,5,574,1.5765,0.747,0,0,0,2,1,2,1,1,2,5,3
12_004,YA,D,34,1,variable,5,1,2,1,6,604,1.2806,0.4745,0,0,0,2,1,2,1,1,2,6,3
12_004,YA,D,35,1,variable,1,2,4,2,2,606,0.872,0.3546,0,0,0,3,4,2,1,1,2,8,2
12_004,YA,D,36,1,variable,5,2,3,1,8,646,0.7238,0.3344,0,0,0,3,4,2,1,1,2,8,2
12_004,YA,D,37,1,variable,1,2,3,1,5,651,0.7614,0.2117,0,0,0,4,3,2,1,1,2,5,2
12_004,YA,D,38,1,variable,1,1,2,1,5,656,0.7782,0.2448,0,0,0,1,2,2,1,1,2,5,7
12_004,YA,D,39,1,variable,1,2,4,2,6,662,1.0268,0.2294,0,0,0,3,4,1,2,1,2,6,6
12_004,YA,D,40,1,variable,1,1,2,2,8,670,1.4502,0.3084,0,0,0,1,2,1,2,1,2,7,8
12_004,YA,D,41,1,variable,5,2,4,2,7,705,0.7118,0.2259,0,0,0,4,3,1,2,1,2,6,7
12_004,YA,D,42,1,variable,1,2,4,2,7,712,0.5183,0.2811,0,0,0,3,4,1,2,1,2,1,7
12_004,YA,D,43,1,variable,1,2,4,2,5,717,0.413,0.2786,0,0,0,4,3,1,2,1,2,2,5
12_004,YA,D,44,1,variable,5,2,4,2,7,752,0.4935,0.3278,0,0,0,4,3,1,2,1,2,2,7
12_004,YA,D,45,1,variable,5,2,4,2,8,792,0.4523,0.3108,0,0,0,4,3,1,2,1,2,3,8
12_004,YA,D,46,1,variable,5,2,4,2,8,832,0.4421,0.2288,0,0,0,3,4,1,2,1,2,7,8
12_004,YA,D,47,1,variable,1,1,1,1,1,833,1.2324,0.5304,0,0,0,1,2,1,2,1,2,1,9
12_004,YA,D,48,1,variable,1,2,4,2,9,842,0.5083,0.4629,0,0,0,4,3,2,1,1,2,1,9
12_004,YA,D,49,1,variable,1,2,4,2,6,848,0.7689,0.2433,0,0,0,4,3,2,1,1,2,1,6
12_004,YA,D,50,1,variable,1,2,4,2,7,855,0.6872,0.2984,0,0,0,4,3,2,1,1,2,0,7
12_004,YA,D,51,1,variable,1,1,2,1,2,857,0.5738,0.3441,0,0,0,2,1,2,1,1,2,2,6
12_004,YA,D,52,1,variable,1,2,4,2,4,861,0.6423,0.4366,0,0,0,4,3,2,1,1,2,0,4
12_004,YA,D,53,1,variable,1,2,3,1,4,865,0.3481,0.3654,0,0,0,3,4,2,1,1,2,4,5
12_004,YA,D,54,1,variable,5,2,3,1,4,885,0.9085,0.5593,0,0,0,4,3,2,1,1,2,4,5
12_004,YA,D,55,1,variable,1,1,2,1,6,891,1.2632,0.5137,0,0,0,1,2,2,1,1,2,6,8
12_004,YA,D,56,1,variable,5,1,2,2,6,921,0.5663,0.4324,0,0,0,2,1,1,2,1,2,5,6
12_004,YA,D,57,1,variable,1,1,2,2,8,929,0.5889,1.7675,0,0,0,2,1,1,2,1,2,5,8
12_004,YA,D,58,1,variable,5,2,3,1,5,954,1.1942,0.5171,0,0,0,3,4,1,2,1,2,5,8
12_004,YA,D,59,1,variable,1,1,2,2,8,962,0.6666,0.2365,0,0,0,1,2,1,2,1,2,4,8
12_004,YA,D,60,1,variable,5,2,3,1,3,977,1.0951,0.3457,0,0,0,3,4,1,2,1,2,3,8
12_004,YA,D,61,1,variable,5,1,2,2,8,1017,1.0669,0.5165,0,0,0,1,2,1,2,1,2,3,8
12_004,YA,D,62,1,variable,5,1,2,2,9,1062,0.4871,0.3299,0,0,0,2,1,1,2,1,2,1,9
12_004,YA,D,63,1,variable,5,2,4,2,8,1102,1.2825,0.3884,0,0,0,3,4,1,2,1,2,4,8
12_004,YA,D,64,1,variable,5,2,4,2,4,1122,0.4319,0.3459,0,0,0,4,3,1,2,1,2,5,4
12_004,YA,D,65,1,variable,5,1,1,1,9,1167,1.121,0.5472,0,0,0,2,1,1,2,1,2,9,5
12_004,YA,D,66,1,variable,1,1,1,1,8,1175,0.6772,0.2158,0,0,0,1,2,1,2,1,2,8,7
12_004,YA,D,67,1,variable,5,2,3,1,8,1215,1.1623,0.5246,0,0,0,3,4,1,2,1,2,8,8
12_004,YA,D,68,1,variable,5,2,3,1,7,1250,0.7598,0.2104,0,0,0,4,3,1,2,1,2,7,8
12_004,YA,D,69,1,variable,1,2,3,1,9,1259,1.2389,0.4499,0,0,0,3,4,2,1,1,2,9,8
12_004,YA,D,70,1,variable,1,2,3,1,8,1267,0.4591,0.2375,0,0,0,4,3,2,1,1,2,8,8
12_004,YA,D,71,1,variable,5,1,1,2,8,1307,0.7522,0.3468,0,0,0,1,2,2,1,1,2,6,8
12_004,YA,D,72,1,variable,5,2,3,1,7,1342,1.5654,0.4232,0,0,0,3,4,2,1,1,2,7,6
12_004,YA,D,73,1,variable,5,1,1,2,5,1367,1.4117,0.4384,0,0,0,2,1,2,1,1,2,6,5
12_004,YA,D,74,1,variable,5,1,2,1,2,1377,1.213,0.3665,0,0,0,1,2,2,1,1,2,2,5
12_004,YA,D,75,1,variable,1,1,2,1,1,1378,0.662,0.2965,0,0,0,1,2,2,1,1,2,1,6
12_004,YA,D,76,1,variable,1,1,1,2,8,1386,1.2829,0.4771,0,0,0,1,2,2,1,1,2,1,8
12_004,YA,D,77,1,variable,1,1,2,1,2,1388,1.7191,0.5605,0,0,0,1,2,2,1,1,2,2,7
12_004,YA,D,78,1,variable,5,1,1,2,6,1418,0.7229,0.301,0,0,0,2,1,2,1,1,2,0,6
12_004,YA,D,79,1,variable,5,1,1,2,2,1428,0.4659,0.2038,0,0,0,1,2,2,1,1,2,3,2
12_004,YA,D,80,1,variable,1,1,2,1,6,1434,1.8289,0.5996,0,0,0,2,1,2,1,1,2,6,3
12_004,YA,D,81,2,stable,5,1,1,2,1,1439,0.7272,0.2099,0,0,0,1,2,2,1,1,2,6,1
12_004,YA,D,82,2,stable,5,1,2,1,8,1479,0.5008,0.2634,0,0,0,2,1,2,1,1,2,8,1
12_004,YA,D,83,2,stable,5,2,3,1,6,1509,1.298,0.4039,0,0,0,3,4,2,1,1,2,6,4
12_004,YA,D,84,2,stable,1,1,2,1,9,1518,0.8879,0.1866,0,0,0,2,1,2,1,1,2,9,2
12_004,YA,D,85,2,stable,5,2,3,1,7,1553,1.1007,0.254,0,0,0,3,4,2,1,1,2,7,4
12_004,YA,D,86,2,stable,5,1,2,1,9,1598,0.585,0.2436,0,0,0,2,1,2,1,1,2,9,7
12_004,YA,D,87,2,stable,1,1,2,1,9,1607,1.1099,0.2884,0,0,0,1,2,2,1,1,2,9,7
12_004,YA,D,88,2,stable,5,2,3,1,6,1637,0.6973,0.2033,0,0,0,3,4,2,1,1,2,6,8
12_004,YA,D,89,2,stable,1,2,3,1,3,1640,0.6322,0.33,0,0,0,3,4,2,1,1,2,3,9
12_004,YA,D,90,2,stable,1,2,4,2,8,1648,0.9219,0.333,0,0,0,4,3,2,1,1,2,1,8
12_004,YA,D,91,2,stable,1,2,4,2,6,1654,0.7032,0.1941,0,0,0,3,4,2,1,1,2,3,6
12_004,YA,D,92,2,stable,5,2,4,2,8,1694,0.7353,0.3222,0,0,0,4,3,2,1,1,2,0,8
12_004,YA,D,93,2,stable,5,2,4,2,7,1729,0.6373,0.3443,0,0,0,4,3,2,1,1,2,4,7
12_004,YA,D,94,2,stable,5,1,1,2,7,1764,0.9727,0.4228,0,0,0,2,1,2,1,1,2,7,7
12_004,YA,D,95,2,stable,1,2,4,2,8,1772,0.7718,0.4299,0,0,0,4,3,2,1,1,2,9,8
12_004,YA,D,96,2,stable,1,1,1,2,6,1778,1.1047,0.2431,0,0,0,2,1,2,1,1,2,8,6
12_004,YA,D,97,2,stable,1,1,2,1,8,1786,0.3846,0.3471,0,0,0,1,2,2,1,1,2,8,8
12_004,YA,D,98,2,stable,5,1,2,1,8,1826,0.3902,0.3524,0,0,0,2,1,2,1,1,2,8,2
12_004,YA,D,99,2,stable,1,2,3,1,7,1833,0.5872,0.2216,0,0,0,3,4,2,1,1,2,7,2
12_004,YA,D,100,2,stable,5,2,3,1,6,1863,0.754,0.2052,0,0,0,4,3,2,1,1,2,6,1
12_004,YA,D,101,2,stable,1,2,3,1,7,1870,0.8906,0.1968,0,0,0,4,3,2,1,1,2,7,1
12_004,YA,D,102,2,stable,1,1,2,1,5,1875,0.9608,0.3871,0,0,0,2,1,2,1,1,2,5,5
12_004,YA,D,103,2,stable,5,1,1,2,3,1890,0.8333,0.2113,0,0,0,2,1,2,1,1,2,3,3
12_004,YA,D,104,2,stable,1,2,3,1,0,1890,0.5077,0.5423,0,0,0,3,4,2,1,1,2,0,3
12_004,YA,D,105,2,stable,1,1,1,2,3,1893,1.1207,0.4035,0,0,0,2,1,2,1,1,2,2,3
12_004,YA,D,106,2,stable,1,1,-1,0,0,1893,-1,-1,1,0,1,1,2,2,1,1,2,2,3
12_004,YA,D,107,2,stable,5,2,3,1,6,1923,1.3103,0.3453,0,0,0,4,3,2,1,1,2,6,1
12_004,YA,D,108,2,stable,5,1,2,1,7,1958,0.9904,0.257,0,0,0,2,1,2,1,1,2,7,1
12_004,YA,D,109,2,stable,1,1,2,1,7,1965,0.7974,0.3594,0,0,0,2,1,2,1,1,2,7,1
12_004,YA,D,110,2,stable,5,2,3,1,6,1995,0.7404,0.2864,0,0,0,4,3,2,1,1,2,6,4
12_004,YA,D,111,2,stable,5,1,2,1,4,2015,0.6036,0.2704,0,0,0,1,2,2,1,1,2,4,8
12_004,YA,D,112,2,stable,1,1,1,2,7,2022,0.5967,0.3827,0,0,0,1,2,2,1,1,2,7,7
12_004,YA,D,113,2,stable,5,1,1,2,6,2052,0.7544,0.4054,0,0,0,1,2,2,1,1,2,6,6
12_004,YA,D,114,2,stable,5,2,4,2,5,2077,0.8664,0.2203,0,0,0,3,4,2,1,1,2,6,5
12_004,YA,D,115,2,stable,1,1,1,2,3,2080,0.5788,0.2289,0,0,0,1,2,2,1,1,2,8,3
12_004,YA,D,116,2,stable,5,1,2,1,7,2115,0.413,0.247,0,0,0,2,1,2,1,1,2,7,3
12_004,YA,D,117,2,stable,5,2,3,1,8,2155,0.9547,0.4213,0,0,0,4,3,2,1,1,2,8,4
12_004,YA,D,118,2,stable,5,1,2,1,7,2190,0.6245,0.2191,0,0,0,1,2,2,1,1,2,7,4
12_004,YA,D,119,2,stable,5,2,3,1,6,2220,0.5352,0.2814,0,0,0,3,4,2,1,1,2,6,1
12_004,YA,D,120,2,stable,5,1,2,1,7,2255,1.0542,0.313,0,0,0,1,2,2,1,1,2,7,1
12_004,YA,D,121,2,stable,5,2,3,1,7,2290,0.5788,0.189,0,0,0,3,4,2,1,1,2,7,3
12_004,YA,D,122,2,stable,1,1,2,1,9,2299,0.4739,0.348,0,0,0,2,1,2,1,1,2,9,3
12_004,YA,D,123,2,stable,1,2,3,1,8,2307,0.5176,0.2886,0,0,0,3,4,2,1,1,2,8,3
12_004,YA,D,124,2,stable,1,1,2,1,8,2315,0.5715,0.2221,0,0,0,1,2,2,1,1,2,8,4
12_004,YA,D,125,2,stable,1,1,2,1,6,2321,0.4473,0.2015,0,0,0,2,1,2,1,1,2,6,3
12_004,YA,D,126,2,stable,1,2,3,1,7,2328,0.4384,0.2726,0,0,0,4,3,2,1,1,2,7,4
12_004,YA,D,127,2,stable,5,1,2,1,7,2363,0.3971,0.271,0,0,0,2,1,2,1,1,2,7,7
12_004,YA,D,128,2,stable,1,1,2,1,5,2368,0.3554,0.294,0,0,0,1,2,2,1,1,2,5,6
12_004,YA,D,129,2,stable,1,1,1,2,8,2376,0.8286,0.2872,0,0,0,2,1,2,1,1,2,6,8
12_004,YA,D,130,2,stable,1,2,4,2,7,2383,0.9058,0.3244,0,0,0,4,3,2,1,1,2,7,7
12_004,YA,D,131,2,stable,5,1,1,2,6,2413,0.7769,0.2034,0,0,0,2,1,2,1,1,2,7,6
12_004,YA,D,132,2,stable,1,2,3,1,8,2421,0.3603,0.2429,0,0,0,3,4,2,1,1,2,8,7
12_004,YA,D,133,2,stable,5,2,3,1,7,2456,0.4228,0.3052,0,0,0,3,4,2,1,1,2,7,8
12_004,YA,D,134,2,stable,5,1,2,1,7,2491,0.4372,0.2317,0,0,0,1,2,2,1,1,2,7,8
12_004,YA,D,135,2,stable,5,2,3,1,6,2521,0.6118,0.2141,0,0,0,4,3,2,1,1,2,6,8
12_004,YA,D,136,2,stable,5,1,2,1,5,2546,0.4109,0.2775,0,0,0,1,2,2,1,1,2,5,5
12_004,YA,D,137,2,stable,5,1,1,2,8,2586,1.0125,0.4146,0,0,0,1,2,2,1,1,2,0,8
12_004,YA,D,138,2,stable,5,2,4,2,7,2621,0.7297,0.2431,0,0,0,4,3,2,1,1,2,1,7
12_004,YA,D,139,2,stable,1,1,2,1,2,2623,0.4957,0.2335,0,0,0,2,1,2,1,1,2,2,6
12_004,YA,D,140,2,stable,1,1,1,2,5,2628,0.9471,0.3167,0,0,0,2,1,2,1,1,2,0,5
12_004,YA,D,141,2,stable,1,1,1,2,4,2632,0.7866,0.2532,0,0,0,1,2,2,1,1,2,0,4
12_004,YA,D,142,2,stable,1,2,4,2,7,2639,1.2125,0.5428,0,0,0,4,3,2,1,1,2,1,7
12_004,YA,D,143,2,stable,1,2,4,2,7,2646,0.7952,0.2378,0,0,0,4,3,2,1,1,2,1,7
12_004,YA,D,144,2,stable,5,2,4,2,7,2681,0.6105,0.2288,0,0,0,3,4,2,1,1,2,2,7
12_004,YA,D,145,2,stable,1,2,4,2,5,2686,0.5211,0.3078,0,0,0,4,3,2,1,1,2,3,5
12_004,YA,D,146,2,stable,1,2,4,2,2,2688,1.0028,0.309,0,0,0,3,4,2,1,1,2,4,2
12_004,YA,D,147,2,stable,1,2,3,1,0,2688,0.383,0.2729,0,0,0,3,4,2,1,1,2,0,6
12_004,YA,D,148,2,stable,1,2,3,1,4,2692,0.5803,0.2617,0,0,0,4,3,2,1,1,2,4,6
12_004,YA,D,149,2,stable,5,2,3,1,6,2722,0.5974,0.2074,0,0,0,3,4,2,1,1,2,6,6
12_004,YA,D,150,2,stable,5,2,3,1,2,2732,0.3809,0.2294,0,0,0,4,3,2,1,1,2,2,8
12_004,YA,D,151,2,stable,1,1,1,2,8,2740,0.9826,0.2484,0,0,0,1,2,2,1,1,2,1,8
12_004,YA,D,152,2,stable,1,2,4,2,8,2748,0.9071,0.2141,0,0,0,3,4,2,1,1,2,0,8
12_004,YA,D,153,2,stable,1,2,4,2,7,2755,0.8563,0.2753,0,0,0,3,4,2,1,1,2,0,7
12_004,YA,D,154,2,stable,1,2,4,2,7,2762,0.7355,0.2339,0,0,0,4,3,2,1,1,2,3,7
12_004,YA,D,155,2,stable,5,2,4,2,8,2802,0.5336,0.2795,0,0,0,4,3,2,1,1,2,4,8
12_004,YA,D,156,2,stable,5,2,4,2,8,2842,0.6425,0.3247,0,0,0,3,4,2,1,1,2,4,8
12_004,YA,D,157,2,stable,5,1,1,2,8,2882,0.568,0.2826,0,0,0,1,2,2,1,1,2,6,8
12_004,YA,D,158,2,stable,5,1,1,2,8,2922,0.4056,0.2239,0,0,0,1,2,2,1,1,2,4,8
12_004,YA,D,159,2,stable,1,1,1,2,5,2927,0.4272,0.2942,0,0,0,1,2,2,1,1,2,4,5
12_004,YA,D,160,2,stable,5,1,2,1,8,2967,0.3649,0.1823,0,0,0,2,1,2,1,1,2,8,5
12_004,YA,D,161,3,variable,5,2,3,1,6,2997,0.5291,0.2909,0,0,0,4,3,1,2,1,2,6,6
12_004,YA,D,162,3,variable,5,1,2,2,7,3032,1.1288,0.3077,0,0,0,2,1,1,2,1,2,6,7
12_004,YA,D,163,3,variable,5,1,2,2,7,3067,0.4721,0.25,0,0,0,1,2,1,2,1,2,8,7
12_004,YA,D,164,3,variable,1,1,2,2,4,3071,0.7098,0.2964,0,0,0,1,2,1,2,1,2,7,4
12_004,YA,D,165,3,variable,1,2,3,1,9,3080,0.5753,0.186,0,0,0,4,3,1,2,1,2,9,8
12_004,YA,D,166,3,variable,5,2,3,1,7,3115,0.4114,0.2141,0,0,0,4,3,1,2,1,2,7,5
12_004,YA,D,167,3,variable,1,2,3,1,6,3121,0.3621,0.2357,0,0,0,4,3,1,2,1,2,6,6
12_004,YA,D,168,3,variable,1,2,4,2,8,3129,0.4885,0.2191,0,0,0,3,4,1,2,1,2,6,8
12_004,YA,D,169,3,variable,1,2,4,2,7,3136,0.3898,0.2244,0,0,0,3,4,1,2,1,2,8,7
12_004,YA,D,170,3,variable,5,1,1,1,5,3161,1.1248,0.5113,0,0,0,1,2,1,2,1,2,5,8
12_004,YA,D,171,3,variable,1,2,3,1,3,3164,0.486,0.2005,0,0,0,3,4,1,2,1,2,3,9
12_004,YA,D,172,3,variable,5,2,4,2,8,3204,0.4007,0.2192,0,0,0,3,4,1,2,1,2,5,8
12_004,YA,D,173,3,variable,5,1,2,2,4,3224,1.1986,0.3837,0,0,0,1,2,1,2,1,2,6,4
12_004,YA,D,174,3,variable,1,1,1,1,4,3228,0.8394,0.1936,0,0,0,2,1,1,2,1,2,4,2
12_004,YA,D,175,3,variable,1,1,-1,0,0,3228,-1,-1,1,0,1,2,1,2,1,1,2,4,3
12_004,YA,D,176,3,variable,1,1,2,1,4,3232,0.6379,0.3365,0,0,0,1,2,2,1,1,2,4,2
12_004,YA,D,177,3,variable,1,1,1,2,4,3236,0.4632,0.3694,0,0,0,2,1,2,1,1,2,5,4
12_004,YA,D,178,3,variable,1,2,3,1,3,3239,0.5201,0.2666,0,0,0,4,3,2,1,1,2,3,4
12_004,YA,D,179,3,variable,1,2,3,1,1,3240,0.4594,0.3736,0,0,0,3,4,2,1,1,2,1,2
12_004,YA,D,180,3,variable,5,1,1,2,5,3265,0.8804,0.3623,0,0,0,2,1,2,1,1,2,1,5
12_004,YA,D,181,3,variable,5,1,1,2,4,3285,1.657,0.4999,0,0,0,2,1,2,1,1,2,3,4
12_004,YA,D,182,3,variable,5,1,1,2,2,3295,1.4025,0.5171,0,0,0,1,2,2,1,1,2,5,2
12_004,YA,D,183,3,variable,5,1,1,2,2,3305,0.6547,0.529,0,0,0,2,1,2,1,2,1,8,2
12_004,YA,D,184,3,variable,5,2,3,2,1,3310,0.4189,0.4214,0,0,0,3,4,2,1,2,1,6,1
12_004,YA,D,185,3,variable,5,2,4,1,8,3350,0.9685,0.323,0,0,0,4,3,2,1,2,1,8,1
12_004,YA,D,186,3,variable,5,2,4,1,7,3385,0.6627,0.2962,0,0,0,3,4,2,1,2,1,7,3
12_004,YA,D,187,3,variable,1,2,4,1,6,3391,0.7643,0.3659,0,0,0,3,4,2,1,2,1,6,2
12_004,YA,D,188,3,variable,5,2,4,1,7,3426,0.4671,0.3017,0,0,0,3,4,2,1,2,1,7,0
12_004,YA,D,189,3,variable,1,1,2,1,7,3433,1.145,0.3796,0,0,0,2,1,2,1,2,1,7,1
12_004,YA,D,190,3,variable,1,1,2,1,5,3438,0.8313,0.3532,0,0,0,2,1,2,1,2,1,5,0
12_004,YA,D,191,3,variable,5,1,2,1,7,3473,0.8551,0.2417,0,0,0,2,1,2,1,2,1,7,0
12_004,YA,D,192,3,variable,5,2,4,1,7,3508,1.1343,0.2804,0,0,0,3,4,2,1,2,1,7,5
12_004,YA,D,193,3,variable,1,1,2,1,7,3515,0.7798,0.3576,0,0,0,1,2,2,1,2,1,7,3
12_004,YA,D,194,3,variable,5,1,2,1,9,3560,0.458,0.4367,0,0,0,1,2,2,1,2,1,9,5
12_004,YA,D,195,3,variable,1,1,2,2,8,3568,0.5902,0.3608,0,0,0,1,2,1,2,2,1,8,8
12_004,YA,D,196,3,variable,5,2,4,1,6,3598,0.5164,0.238,0,0,0,3,4,1,2,2,1,6,5
12_004,YA,D,197,3,variable,5,1,2,2,4,3618,0.3955,0.2455,0,0,0,2,1,1,2,2,1,5,4
12_004,YA,D,198,3,variable,5,1,1,1,7,3653,0.8611,0.1841,0,0,0,2,1,1,2,2,1,7,3
12_004,YA,D,199,3,variable,1,2,4,1,8,3661,0.5478,0.2373,0,0,0,4,3,1,2,2,1,8,2
12_004,YA,D,200,3,variable,1,1,1,1,6,3667,0.8243,0.2344,0,0,0,2,1,1,2,2,1,6,2
12_004,YA,D,201,3,variable,1,1,1,1,4,3671,0.7437,0.1939,0,0,0,1,2,1,2,2,1,4,0
12_004,YA,D,202,3,variable,1,2,3,2,3,3674,0.6722,0.3148,0,0,0,4,3,1,2,2,1,4,3
12_004,YA,D,203,3,variable,1,2,3,2,3,3677,0.555,0.2859,0,0,0,4,3,1,2,2,1,5,3
12_004,YA,D,204,3,variable,1,2,4,1,6,3683,0.5016,0.2243,0,0,0,3,4,1,2,2,1,6,4
12_004,YA,D,205,3,variable,1,1,1,1,3,3686,0.6054,0.8556,0,0,0,1,2,1,2,2,1,3,3
12_004,YA,D,206,3,variable,5,2,3,2,3,3701,0.6165,0.2987,0,0,0,4,3,2,1,2,1,0,3
12_004,YA,D,207,3,variable,1,1,2,1,4,3705,1.3785,0.469,0,0,0,1,2,2,1,2,1,4,6
12_004,YA,D,208,3,variable,5,2,4,1,3,3720,1.1725,0.3827,0,0,0,4,3,2,1,2,1,3,6
12_004,YA,D,209,3,variable,5,1,2,1,6,3750,0.6872,0.2738,0,0,0,1,2,2,1,2,1,6,5
12_004,YA,D,210,3,variable,1,2,4,1,7,3757,0.9589,0.314,0,0,0,4,3,2,1,2,1,7,8
12_004,YA,D,211,3,variable,5,2,4,1,9,3802,0.5337,0.1751,0,0,0,3,4,2,1,2,1,9,7
12_004,YA,D,212,3,variable,1,2,4,1,7,3809,0.4973,0.3716,0,0,0,4,3,2,1,2,1,7,9
12_004,YA,D,213,3,variable,5,2,4,2,9,3854,0.3676,0.2265,0,0,0,4,3,2,1,1,2,8,9
12_004,YA,D,214,3,variable,1,2,4,2,9,3863,0.4045,0.2391,0,0,0,3,4,2,1,1,2,7,9
12_004,YA,D,215,3,variable,5,1,1,2,8,3903,1.1132,0.2198,0,0,0,2,1,2,1,1,2,7,8
12_004,YA,D,216,3,variable,1,2,4,2,7,3910,0.5665,0.2003,0,0,0,3,4,2,1,1,2,8,7
12_004,YA,D,217,3,variable,5,2,4,2,3,3925,0.4045,0.2789,0,0,0,3,4,2,1,1,2,7,3
12_004,YA,D,218,3,variable,5,1,1,2,6,3955,1.0079,0.3221,0,0,0,1,2,2,1,1,2,8,6
12_004,YA,D,219,3,variable,5,2,3,1,8,3995,0.8477,0.202,0,0,0,4,3,2,1,1,2,8,8
12_004,YA,D,220,3,variable,1,2,3,1,8,4003,0.3722,0.3028,0,0,0,4,3,2,1,1,2,8,7
12_004,YA,D,221,3,variable,1,2,3,1,7,4010,0.7697,0.2279,0,0,0,4,3,2,1,1,2,7,6
12_004,YA,D,222,3,variable,5,2,3,1,7,4045,0.4007,0.499,0,0,0,4,3,1,2,1,2,7,4
12_004,YA,D,223,3,variable,1,1,2,2,4,4049,1.1026,0.5853,0,0,0,2,1,1,2,1,2,6,4
12_004,YA,D,224,3,variable,1,1,1,1,7,4056,0.9035,0.3068,0,0,0,2,1,1,2,1,2,7,4
12_004,YA,D,225,3,variable,5,2,3,1,9,4101,0.4386,0.3538,0,0,0,4,3,1,2,1,2,9,6
12_004,YA,D,226,3,variable,5,2,3,1,8,4141,0.7067,0.3012,0,0,0,3,4,1,2,1,2,8,5
12_004,YA,D,227,3,variable,5,1,1,1,7,4176,0.9919,0.2506,0,0,0,1,2,1,2,1,2,7,5
12_004,YA,D,228,3,variable,5,2,3,1,5,4201,0.4066,0.2648,0,0,0,4,3,2,1,1,2,5,7
12_004,YA,D,229,3,variable,1,1,1,2,5,4206,0.4231,0.4174,0,0,0,1,2,2,1,1,2,4,5
12_004,YA,D,230,3,variable,5,1,2,1,2,4216,0.6233,0.2739,0,0,0,1,2,2,1,1,2,2,5
12_004,YA,D,231,3,variable,5,1,1,2,3,4231,0.7478,0.2376,0,0,0,2,1,2,1,1,2,2,3
12_004,YA,D,232,3,variable,1,1,2,1,1,4232,0.4464,0.4324,0,0,0,1,2,2,1,1,2,1,2
12_004,YA,D,233,3,variable,1,1,1,2,1,4233,1.5307,0.4052,0,0,0,2,1,2,1,1,2,2,1
12_004,YA,D,234,3,variable,1,1,2,1,4,4237,1.1602,0.5228,0,0,0,2,1,2,1,1,2,4,3
12_004,YA,D,235,3,variable,1,2,3,1,5,4242,1.2826,0.3965,0,0,0,3,4,2,1,1,2,5,0
12_004,YA,D,236,3,variable,1,1,2,1,6,4248,1.2184,0.3164,0,0,0,1,2,2,1,1,2,6,2
12_004,YA,D,237,3,variable,5,2,4,2,4,4268,1.3452,0.3797,0,0,0,3,4,2,1,1,2,9,4
12_004,YA,D,238,3,variable,5,1,2,1,7,4303,1.0988,0.2206,0,0,0,1,2,2,1,1,2,7,3
12_004,YA,D,239,3,variable,5,1,2,1,6,4333,0.3844,0.2193,0,0,0,2,1,2,1,1,2,6,1
12_004,YA,D,240,3,variable,1,2,3,1,6,4339,1.0081,0.3224,0,0,0,3,4,2,1,1,2,6,1
12_004,YA,D,241,4,stable,1,2,3,1,8,4347,0.6559,0.3463,0,0,0,3,4,2,1,1,2,8,3
12_004,YA,D,242,4,stable,5,1,1,2,5,4372,0.8132,0.3748,0,0,0,1,2,2,1,1,2,8,5
12_004,YA,D,243,4,stable,1,1,2,1,7,4379,0.7254,0.3681,0,0,0,2,1,2,1,1,2,7,7
12_004,YA,D,244,4,stable,5,1,2,1,6,4409,0.3718,0.1983,0,0,0,2,1,2,1,1,2,6,6
12_004,YA,D,245,4,stable,5,1,2,1,7,4444,0.8032,0.2859,0,0,0,1,2,2,1,1,2,7,7
12_004,YA,D,246,4,stable,1,1,2,1,4,4448,0.8099,0.4202,0,0,0,1,2,2,1,1,2,4,7
12_004,YA,D,247,4,stable,1,1,1,2,4,4452,0.5795,0.2294,0,0,0,2,1,2,1,1,2,3,4
12_004,YA,D,248,4,stable,1,1,1,2,2,4454,1.3004,0.4624,0,0,0,2,1,2,1,1,2,5,2
12_004,YA,D,249,4,stable,1,1,2,1,2,4456,0.6319,0.2337,0,0,0,1,2,2,1,1,2,2,1
12_004,YA,D,250,4,stable,5,1,2,1,2,4466,0.9309,0.3329,0,0,0,2,1,2,1,1,2,2,0
12_004,YA,D,251,4,stable,1,2,4,2,1,4467,0.7981,0.248,0,0,0,3,4,2,1,1,2,3,1
12_004,YA,D,252,4,stable,1,2,3,1,1,4468,0.7063,0.3889,0,0,0,4,3,2,1,1,2,1,0
12_004,YA,D,253,4,stable,1,1,2,1,0,4468,0.6483,0.3218,0,0,0,1,2,2,1,1,2,0,0
12_004,YA,D,254,4,stable,5,2,4,2,2,4478,0.8452,0.4074,0,0,0,4,3,2,1,1,2,1,2
12_004,YA,D,255,4,stable,1,2,4,2,5,4483,0.8573,0.3723,0,0,0,4,3,2,1,1,2,2,5
12_004,YA,D,256,4,stable,5,2,4,2,7,4518,0.5065,0.2211,0,0,0,4,3,2,1,1,2,2,7
12_004,YA,D,257,4,stable,5,2,4,2,8,4558,0.4339,0.1641,0,0,0,3,4,2,1,1,2,4,8
12_004,YA,D,258,4,stable,1,1,1,2,9,4567,0.9107,0.2817,0,0,0,1,2,2,1,1,2,5,9
12_004,YA,D,259,4,stable,1,2,4,2,7,4574,0.5708,0.4055,0,0,0,4,3,2,1,1,2,3,7
12_004,YA,D,260,4,stable,1,1,1,2,5,4579,1.3539,0.2765,0,0,0,2,1,2,1,1,2,5,5
12_004,YA,D,261,4,stable,1,1,1,2,6,4585,0.4191,0.4057,0,0,0,2,1,2,1,1,2,8,6
12_004,YA,D,262,4,stable,1,1,1,2,3,4588,0.4512,0.2059,0,0,0,2,1,2,1,1,2,8,3
12_004,YA,D,263,4,stable,1,1,2,1,9,4597,0.6069,0.2256,0,0,0,1,2,2,1,1,2,9,3
12_004,YA,D,264,4,stable,5,2,3,1,8,4637,0.5239,0.222,0,0,0,3,4,2,1,1,2,8,0
12_004,YA,D,265,4,stable,5,1,2,1,7,4672,0.4734,0.2199,0,0,0,1,2,2,1,1,2,7,1
12_004,YA,D,266,4,stable,5,2,3,1,6,4702,0.368,0.3542,0,0,0,3,4,2,1,1,2,6,3
12_004,YA,D,267,4,stable,1,1,2,1,5,4707,0.519,0.4017,0,0,0,2,1,2,1,1,2,5,4
12_004,YA,D,268,4,stable,1,1,2,1,3,4710,0.4956,0.2661,0,0,0,1,2,2,1,1,2,3,5
12_004,YA,D,269,4,stable,1,2,4,2,6,4716,0.5463,0.2843,0,0,0,3,4,2,1,1,2,1,6
12_004,YA,D,270,4,stable,5,2,4,2,5,4741,0.5134,0.2431,0,0,0,4,3,2,1,1,2,2,5
12_004,YA,D,271,4,stable,1,2,4,2,3,4744,0.9294,0.3725,0,0,0,3,4,2,1,1,2,4,3
12_004,YA,D,272,4,stable,5,1,2,1,2,4754,0.5889,0.3114,0,0,0,1,2,2,1,1,2,2,2
12_004,YA,D,273,4,stable,1,2,4,2,4,4758,0.5054,0.364,0,0,0,4,3,2,1,1,2,2,4
12_004,YA,D,274,4,stable,5,1,1,2,5,4783,0.6754,0.3896,0,0,0,2,1,2,1,1,2,1,5
12_004,YA,D,275,4,stable,1,2,4,2,3,4786,0.6923,0.2069,0,0,0,3,4,2,1,1,2,6,3
12_004,YA,D,276,4,stable,1,1,2,1,5,4791,0.5682,0.3462,0,0,0,1,2,2,1,1,2,5,5
12_004,YA,D,277,4,stable,5,2,3,1,4,4811,1.0002,0.4023,0,0,0,3,4,2,1,1,2,4,0
12_004,YA,D,278,4,stable,1,2,3,1,5,4816,0.7131,0.3555,0,0,0,4,3,2,1,1,2,5,2
12_004,YA,D,279,4,stable,1,2,3,1,7,4823,0.4176,0.0006,0,0,0,3,4,2,1,1,2,7,1
12_004,YA,D,280,4,stable,5,2,3,1,5,4848,0.4479,0.3218,0,0,0,4,3,2,1,1,2,5,1
12_004,YA,D,281,4,stable,1,2,3,1,5,4853,0.5924,0.3474,0,0,0,4,3,2,1,1,2,5,1
12_004,YA,D,282,4,stable,5,1,2,1,6,4883,0.7213,0.2194,0,0,0,1,2,2,1,1,2,6,3
12_004,YA,D,283,4,stable,5,1,2,1,5,4908,0.4483,0.3062,0,0,0,2,1,2,1,1,2,5,0
12_004,YA,D,284,4,stable,5,1,2,1,5,4933,0.4408,0.2914,0,0,0,1,2,2,1,1,2,5,2
12_004,YA,D,285,4,stable,1,1,1,2,4,4937,0.522,0.533,0,0,0,1,2,2,1,1,2,6,4
12_004,YA,D,286,4,stable,1,1,2,1,8,4945,0.372,0.3506,0,0,0,1,2,2,1,1,2,8,7
12_004,YA,D,287,4,stable,1,1,2,1,8,4953,0.3693,0.2199,0,0,0,2,1,2,1,1,2,8,8
12_004,YA,D,288,4,stable,1,2,3,1,8,4961,0.5185,0.2412,0,0,0,4,3,2,1,1,2,8,9
12_004,YA,D,289,4,stable,5,2,3,1,6,4991,0.4045,0.2227,0,0,0,4,3,2,1,1,2,6,9
12_004,YA,D,290,4,stable,5,1,2,1,3,5006,0.3961,0.302,0,0,0,2,1,2,1,1,2,3,8
12_004,YA,D,291,4,stable,5,1,1,2,6,5036,0.8461,0.2327,0,0,0,2,1,2,1,1,2,4,6
12_004,YA,D,292,4,stable,5,2,4,2,8,5076,0.5416,0.2241,0,0,0,4,3,2,1,1,2,5,8
12_004,YA,D,293,4,stable,1,1,1,2,8,5084,0.8356,0.1981,0,0,0,1,2,2,1,1,2,3,8
12_004,YA,D,294,4,stable,5,2,4,2,7,5119,1.3293,0.3,0,0,0,3,4,2,1,1,2,3,7
12_004,YA,D,295,4,stable,1,2,4,2,8,5127,0.7677,0.3055,0,0,0,3,4,2,1,1,2,1,8
12_004,YA,D,296,4,stable,5,1,1,2,9,5172,0.6933,0.3515,0,0,0,1,2,2,1,1,2,3,9
12_004,YA,D,297,4,stable,1,1,1,2,8,5180,0.5929,0.3156,0,0,0,2,1,2,1,1,2,0,8
12_004,YA,D,298,4,stable,5,1,1,2,9,5225,0.5106,0.2328,0,0,0,1,2,2,1,1,2,2,9
12_004,YA,D,299,4,stable,1,2,4,2,7,5232,0.6823,0.2361,0,0,0,4,3,2,1,1,2,3,7
12_004,YA,D,300,4,stable,5,1,1,2,5,5257,0.6159,0.3058,0,0,0,2,1,2,1,1,2,1,5
12_004,YA,D,301,4,stable,5,2,4,2,1,5262,0.7124,0.2915,0,0,0,3,4,2,1,1,2,2,1
12_004,YA,D,302,4,stable,1,2,3,1,2,5264,0.398,0.9842,0,0,0,3,4,2,1,1,2,2,1
12_004,YA,D,303,4,stable,5,2,3,1,3,5279,0.4332,0.3391,0,0,0,3,4,2,1,1,2,3,0
12_004,YA,D,304,4,stable,5,2,3,1,3,5294,0.3558,0.2144,0,0,0,3,4,2,1,1,2,3,1
12_004,YA,D,305,4,stable,5,1,1,2,1,5299,0.8146,0.3844,0,0,0,2,1,2,1,1,2,3,1
12_004,YA,D,306,4,stable,5,1,2,1,3,5314,0.4432,0.3414,0,0,0,1,2,2,1,1,2,3,3
12_004,YA,D,307,4,stable,5,1,2,1,6,5344,0.4302,0.2484,0,0,0,1,2,2,1,1,2,6,6
12_004,YA,D,308,4,stable,1,2,3,1,8,5352,0.6689,0.2236,0,0,0,4,3,2,1,1,2,8,5
12_004,YA,D,309,4,stable,5,1,2,1,8,5392,0.5229,0.3417,0,0,0,2,1,2,1,1,2,8,8
12_004,YA,D,310,4,stable,5,2,3,1,7,5427,0.3687,0.1472,0,0,0,3,4,2,1,1,2,7,7
12_004,YA,D,311,4,stable,1,1,2,1,8,5435,0.3671,0.2015,0,0,0,2,1,2,1,1,2,8,7
12_004,YA,D,312,4,stable,5,2,3,1,8,5475,0.4923,0.3429,0,0,0,3,4,2,1,1,2,8,8
12_004,YA,D,313,4,stable,5,2,3,1,8,5515,0.3941,0.2209,0,0,0,4,3,2,1,1,2,8,9
12_004,YA,D,314,4,stable,1,2,3,1,8,5523,0.4725,0.3311,0,0,0,3,4,2,1,1,2,8,8
12_004,YA,D,315,4,stable,1,2,3,1,8,5531,0.4137,0.3111,0,0,0,4,3,2,1,1,2,8,6
12_004,YA,D,316,4,stable,5,2,3,1,7,5566,0.4265,0.3331,0,0,0,4,3,2,1,1,2,7,3
12_004,YA,D,317,4,stable,5,1,2,1,4,5586,0.5448,0.2034,0,0,0,2,1,2,1,1,2,4,4
12_004,YA,D,318,4,stable,1,2,4,2,2,5588,0.4985,0.3169,0,0,0,3,4,2,1,1,2,5,2
12_004,YA,D,319,4,stable,5,2,3,1,3,5603,0.3577,0.2402,0,0,0,4,3,2,1,1,2,3,0
12_004,YA,D,320,4,stable,5,2,3,1,1,5608,0.401,0.2836,0,0,0,4,3,2,1,1,2,1,0
12_012,YA,A,1,1,stable,5,2,3,1,6,30,1.5813,0.7001,0,0,0,3,4,1,2,1,2,6,2
12_012,YA,A,2,1,stable,5,1,1,1,3,45,1.0454,0.9317,0,0,0,2,1,1,2,1,2,3,6
12_012,YA,A,3,1,stable,5,1,2,2,3,60,1.544,0.9585,0,0,0,1,2,1,2,1,2,2,3
12_012,YA,A,4,1,stable,5,1,2,2,4,80,1.7139,0.7843,0,0,0,2,1,1,2,1,2,4,4
12_012,YA,A,5,1,stable,1,2,4,2,3,83,1.3805,0.6673,0,0,0,4,3,1,2,1,2,4,3
12_012,YA,A,6,1,stable,1,1,2,2,4,87,1.4711,0.3412,0,0,0,1,2,1,2,1,2,6,4
12_012,YA,A,7,1,stable,1,1,2,2,3,90,1.2963,0.7505,0,0,0,2,1,1,2,1,2,7,3
12_012,YA,A,8,1,stable,5,1,1,1,5,115,0.7949,0.3773,0,0,0,2,1,1,2,1,2,5,3
12_012,YA,A,9,1,stable,1,1,1,1,9,124,2.1404,1.011,0,0,0,2,1,1,2,1,2,9,2
12_012,YA,A,10,1,stable,1,1,1,1,7,131,0.9953,0.8337,0,0,0,1,2,1,2,1,2,7,9
12_012,YA,A,11,1,stable,1,2,3,1,7,138,1.4039,1.5136,0,0,0,3,4,1,2,1,2,7,7
12_012,YA,A,12,1,stable,1,1,1,1,8,146,0.8114,0.5062,0,0,0,2,1,1,2,1,2,8,6
12_012,YA,A,13,1,stable,5,2,3,1,6,176,0.9465,0.5769,0,0,0,3,4,1,2,1,2,6,4
12_012,YA,A,14,1,stable,1,1,2,2,5,181,1.4186,0.433,0,0,0,2,1,1,2,1,2,7,5
12_012,YA,A,15,1,stable,1,2,4,2,0,181,1.62,-1,0,1,1,4,3,1,2,1,2,5,4
12_012,YA,A,16,1,stable,1,1,1,1,2,183,1.6406,0.3434,0,0,0,1,2,1,2,1,2,2,6
12_012,YA,A,17,1,stable,1,2,4,2,6,189,1.5799,0.3792,0,0,0,4,3,1,2,1,2,1,6
12_012,YA,A,18,1,stable,5,1,2,2,6,219,1.405,0.5082,0,0,0,2,1,1,2,1,2,1,6
12_012,YA,A,19,1,stable,1,2,4,2,6,225,0.5983,0.5168,0,0,0,3,4,1,2,1,2,1,6
12_012,YA,A,20,1,stable,5,1,2,2,2,235,1.735,0.5974,0,0,0,2,1,1,2,1,2,1,2
12_012,YA,A,21,1,stable,5,2,3,1,5,260,0.8907,0.6098,0,0,0,4,3,1,2,1,2,5,2
12_012,YA,A,22,1,stable,1,2,3,1,6,266,0.5314,0.6736,0,0,0,4,3,1,2,1,2,6,5
12_012,YA,A,23,1,stable,1,1,1,1,8,274,1.5802,0.4584,0,0,0,1,2,1,2,1,2,8,9
12_012,YA,A,24,1,stable,5,2,3,1,7,309,0.699,0.6093,0,0,0,3,4,1,2,1,2,7,4
12_012,YA,A,25,1,stable,5,2,3,1,8,349,0.4505,0.5367,0,0,0,4,3,1,2,1,2,8,2
12_012,YA,A,26,1,stable,5,2,3,1,8,389,0.49,0.6409,0,0,0,3,4,1,2,1,2,8,1
12_012,YA,A,27,1,stable,1,1,2,2,1,390,1.4102,0.3604,0,0,0,1,2,1,2,1,2,8,1
12_012,YA,A,28,1,stable,1,2,4,2,2,392,1.7343,1.4844,0,0,0,3,4,1,2,1,2,4,2
12_012,YA,A,29,1,stable,5,1,1,1,8,432,1.1455,0.3359,0,0,0,2,1,1,2,1,2,8,5
12_012,YA,A,30,1,stable,1,1,1,1,8,440,1.6571,0.6715,0,0,0,1,2,1,2,1,2,8,4
